{
  "resourceType" : "Bundle",
  "id" : "AHCHRSNScreeningResponseExample",
  "meta" : {
    "lastUpdated" : "2024-02-23T00:00:00Z",
    "profile" : ["http://shinny.org/StructureDefinition/SHINNYBundleProfile"]
  },
  "type" : "transaction",
  "timestamp" : "2024-02-03T00:00:00Z",
  "entry" : [{
    "resource" : {
      "resourceType" : "Patient",
      "id" : "PatientExample",
      "meta" : {
        "lastUpdated" : "2024-02-23T00:00:00.00Z",
        "profile" : ["http://shinny.org/StructureDefinition/shinny-patient"]
      },
      "language" : "en",
      "text" : {
        "status" : "generated",
        "div" : "<div xmlns=\"http://www.w3.org/1999/xhtml\" xml:lang=\"en\" lang=\"en\"><a name=\"Patient_PatientExample\"> </a><p class=\"res-header-id\"><b>Generated Narrative: Patient PatientExample</b></p><a name=\"PatientExample\"> </a><a name=\"hcPatientExample\"> </a><a name=\"PatientExample-en-US\"> </a><div style=\"display: inline-block; background-color: #d9e0e7; padding: 6px; margin: 4px; border: 1px solid #8da1b4; border-radius: 5px; line-height: 60%\"><p style=\"margin-bottom: 0px\">Last updated: 2024-02-23 00:00:00+0000; Language: en</p><p style=\"margin-bottom: 0px\">Profile: <a href=\"StructureDefinition-shinny-patient.html\">SHINNY Patient Profile</a></p></div><p style=\"border: 1px #661aff solid; background-color: #e6e6ff; padding: 10px;\">Jon Doe  Male, DoB: 1981-07-16 ( Medical record number)</p><hr/><table class=\"grid\"><tr><td style=\"background-color: #f3f5da\" title=\"Other Ids (see the one above)\">Other Ids:</td><td colspan=\"3\"><ul><li>Patient Medicaid number/AA12345C</li><li>Social Security Number/999-34-2964</li></ul></td></tr><tr><td style=\"background-color: #f3f5da\" title=\"Ways to contact the Patient\">Contact Detail</td><td colspan=\"3\"><ul><li>ph: 555-120-6047(Home)</li><li>115 Broadway\tApt2</li></ul></td></tr><tr><td style=\"background-color: #f3f5da\" title=\"Language spoken\">Language:</td><td colspan=\"3\"><span title=\"Codes:{urn:iso:std:iso:639 EN}\">EN</span> (preferred)</td></tr><tr><td style=\"background-color: #f3f5da\" title=\"Concepts classifying the person into a named category of humans sharing common history, traits, geographical origin or nationality.  The ethnicity codes used to represent these concepts are based upon the [CDC ethnicity and Ethnicity Code Set Version 1.0](http://www.cdc.gov/phin/resources/vocabulary/index.html) which includes over 900 concepts for representing race and ethnicity of which 43 reference ethnicity.  The ethnicity concepts are grouped by and pre-mapped to the 2 OMB ethnicity categories: - Hispanic or Latino - Not Hispanic or Latino.\">US Core Ethnicity Extension:</td><td colspan=\"3\"><ul><li>ombCategory: <a href=\"http://hl7.org/fhir/us/core/STU3.1.1/CodeSystem-cdcrec.html#cdcrec-2135-2\">Race &amp; Ethnicity - CDC</a> 2135-2: Hispanic or Latino</li></ul></td></tr><tr><td style=\"background-color: #f3f5da\" title=\"A code classifying the person's sex assigned at birth  as specified by the [Office of the National Coordinator for Health IT (ONC)](https://www.healthit.gov/newsroom/about-onc). This extension aligns with the C-CDA Birth Sex Observation (LOINC 76689-9).\"><a href=\"http://hl7.org/fhir/us/core/STU3.1.1/StructureDefinition-us-core-birthsex.html\">US Core Birth Sex Extension</a></td><td colspan=\"3\">M</td></tr><tr><td style=\"background-color: #f3f5da\" title=\"Concepts classifying the person into a named category of humans sharing common history, traits, geographical origin or nationality.  The race codes used to represent these concepts are based upon the [CDC Race and Ethnicity Code Set Version 1.0](http://www.cdc.gov/phin/resources/vocabulary/index.html) which includes over 900 concepts for representing race and ethnicity of which 921 reference race.  The race concepts are grouped by and pre-mapped to the 5 OMB race categories:\n\n - American Indian or Alaska Native\n - Asian\n - Black or African American\n - Native Hawaiian or Other Pacific Islander\n - White.\">US Core Race Extension:</td><td colspan=\"3\"><ul><li>ombCategory: <a href=\"http://hl7.org/fhir/us/core/STU3.1.1/CodeSystem-cdcrec.html#cdcrec-2106-3\">Race &amp; Ethnicity - CDC</a> 2106-3: White</li></ul></td></tr></table></div>"
      },
      "extension" : [{
        "extension" : [{
          "url" : "ombCategory",
          "valueCoding" : {
            "system" : "urn:oid:2.16.840.1.113883.6.238",
            "code" : "2106-3",
            "display" : "White"
          }
        }],
        "url" : "http://hl7.org/fhir/us/core/StructureDefinition/us-core-race"
      },
      {
        "extension" : [{
          "url" : "ombCategory",
          "valueCoding" : {
            "system" : "urn:oid:2.16.840.1.113883.6.238",
            "code" : "2135-2",
            "display" : "Hispanic or Latino"
          }
        }],
        "url" : "http://hl7.org/fhir/us/core/StructureDefinition/us-core-ethnicity"
      },
      {
        "url" : "http://hl7.org/fhir/us/core/StructureDefinition/us-core-birthsex",
        "valueCode" : "M"
      }],
      "identifier" : [{
        "type" : {
          "coding" : [{
            "system" : "http://terminology.hl7.org/CodeSystem/v2-0203",
            "code" : "MR"
          }]
        },
        "system" : "http://www.scn.gov/facility/CUMC",
        "value" : "11223344",
        "assigner" : {
          "reference" : "Organization/SCNExample"
        }
      },
      {
        "type" : {
          "coding" : [{
            "system" : "http://terminology.hl7.org/CodeSystem/v2-0203",
            "code" : "MA"
          }]
        },
        "system" : "http://www.medicaid.gov/",
        "value" : "AA12345C",
        "assigner" : {
          "reference" : "Organization/InsuranceExample"
        }
      },
      {
        "type" : {
          "coding" : [{
            "system" : "http://terminology.hl7.org/CodeSystem/v2-0203",
            "code" : "SS",
            "display" : "Social Security Number"
          }],
          "text" : "Social Security Number"
        },
        "system" : "http://hl7.org/fhir/sid/us-ssn",
        "value" : "999-34-2964"
      }],
      "name" : [{
        "family" : "Doe",
        "given" : ["Jon"],
        "prefix" : ["Mr.",
        "Dr.",
        "PhD",
        "CCNA"],
        "suffix" : ["Jr.",
        "III"]
      }],
      "telecom" : [{
        "system" : "phone",
        "value" : "555-120-6047",
        "use" : "home"
      }],
      "gender" : "male",
      "birthDate" : "1981-07-16",
      "address" : [{
        "text" : "115 Broadway\tApt2",
        "line" : ["115 Broadway Apt2"],
        "city" : "New York",
        "state" : "NY",
        "postalCode" : "10032"
      }],
      "communication" : [{
        "extension" : [{
          "url" : "http://shinny.org/fhir/StructureDefinition/fluency-level",
          "valueInteger" : 7
        },
        {
          "url" : "http://shinny.org/fhir/StructureDefinition/writing-level",
          "valueInteger" : 7
        }],
        "language" : {
          "coding" : [{
            "system" : "urn:iso:std:iso:639",
            "code" : "EN"
          }]
        },
        "preferred" : true
      }]
    }
  },
  {
    "resource" : {
      "resourceType" : "Organization",
      "id" : "InsuranceExample",
      "meta" : {
        "lastUpdated" : "2024-02-23T00:00:00Z",
        "profile" : ["http://shinny.org/StructureDefinition/shin-ny-organization"]
      },
      "text" : {
        "status" : "generated",
        "div" : "<div xmlns=\"http://www.w3.org/1999/xhtml\"><a name=\"Organization_InsuranceExample\"> </a><p class=\"res-header-id\"><b>Generated Narrative: Organization InsuranceExample</b></p><a name=\"InsuranceExample\"> </a><a name=\"hcInsuranceExample\"> </a><a name=\"InsuranceExample-en-US\"> </a><div style=\"display: inline-block; background-color: #d9e0e7; padding: 6px; margin: 4px; border: 1px solid #8da1b4; border-radius: 5px; line-height: 60%\"><p style=\"margin-bottom: 0px\">Last updated: 2024-02-23 00:00:00+0000</p><p style=\"margin-bottom: 0px\">Profile: <a href=\"StructureDefinition-shin-ny-organization.html\">SHINNY Organization Profile</a></p></div><p><b>identifier</b>: National Insurance Payor Identifier (Payor)/abc</p><p><b>active</b>: true</p><p><b>type</b>: <span title=\"Codes:{http://terminology.hl7.org/CodeSystem/organization-type ins}\">Insurance Company</span></p><p><b>name</b>: Medicaid Org</p><p><b>address</b>: NY State of Health, P.O. Box 11774, Albany, NY 12211</p></div>"
      },
      "identifier" : [{
        "type" : {
          "coding" : [{
            "display" : "Medicaid"
          }],
          "text" : "National Insurance Payor Identifier (Payor)"
        },
        "system" : "http://www.medicaid.gov/",
        "value" : "abc"
      }],
      "active" : true,
      "type" : [{
        "coding" : [{
          "system" : "http://terminology.hl7.org/CodeSystem/organization-type",
          "code" : "ins",
          "display" : "Insurance Company"
        }]
      }],
      "name" : "Medicaid Org",
      "address" : [{
        "text" : "NY State of Health, P.O. Box 11774, Albany, NY 12211"
      }]
    }
  },
  {
    "resource" : {
      "resourceType" : "Organization",
      "id" : "ProviderExample",
      "meta" : {
        "lastUpdated" : "2024-02-23T00:00:00Z",
        "profile" : ["http://shinny.org/StructureDefinition/shin-ny-organization"]
      },
      "text" : {
        "status" : "generated",
        "div" : "<div xmlns=\"http://www.w3.org/1999/xhtml\"><a name=\"Organization_ProviderExample\"> </a><p class=\"res-header-id\"><b>Generated Narrative: Organization ProviderExample</b></p><a name=\"ProviderExample\"> </a><a name=\"hcProviderExample\"> </a><a name=\"ProviderExample-en-US\"> </a><div style=\"display: inline-block; background-color: #d9e0e7; padding: 6px; margin: 4px; border: 1px solid #8da1b4; border-radius: 5px; line-height: 60%\"><p style=\"margin-bottom: 0px\">Last updated: 2024-02-23 00:00:00+0000</p><p style=\"margin-bottom: 0px\">Profile: <a href=\"StructureDefinition-shin-ny-organization.html\">SHINNY Organization Profile</a></p></div><p><b>identifier</b>: Sacred Heart/2.16.840.1.113883.3.249</p><p><b>active</b>: true</p><p><b>type</b>: <span title=\"Codes:{http://terminology.hl7.org/CodeSystem/organization-type prov}\">Healthcare Provider</span></p><p><b>name</b>: Health System Org</p></div>"
      },
      "identifier" : [{
        "type" : {
          "coding" : [{
            "display" : "Sacred Heart"
          }]
        },
        "system" : "http://www.sacredheart.gov/facility/CUMC",
        "value" : "2.16.840.1.113883.3.249"
      }],
      "active" : true,
      "type" : [{
        "coding" : [{
          "system" : "http://terminology.hl7.org/CodeSystem/organization-type",
          "code" : "prov",
          "display" : "Healthcare Provider"
        }]
      }],
      "name" : "Health System Org"
    }
  },
  {
    "resource" : {
      "resourceType" : "Consent",
      "id" : "ConsentExample",
      "meta" : {
        "lastUpdated" : "2024-02-23T00:00:00Z",
        "profile" : ["http://shinny.org/StructureDefinition/shinny-Consent",
        "http://shinny.org/StructureDefinition/shinny-consent"]
      },
      "text" : {
        "status" : "generated",
        "div" : "<div xmlns=\"http://www.w3.org/1999/xhtml\"><a name=\"Consent_ConsentExample\"> </a><p class=\"res-header-id\"><b>Generated Narrative: Consent ConsentExample</b></p><a name=\"ConsentExample\"> </a><a name=\"hcConsentExample\"> </a><a name=\"ConsentExample-en-US\"> </a><div style=\"display: inline-block; background-color: #d9e0e7; padding: 6px; margin: 4px; border: 1px solid #8da1b4; border-radius: 5px; line-height: 60%\"><p style=\"margin-bottom: 0px\">Last updated: 2024-02-23 00:00:00+0000</p><p style=\"margin-bottom: 0px\">Profiles: <a href=\"StructureDefinition-shinny-Consent.html\">SHINNY Consent Profile</a>, <code>http://shinny.org/StructureDefinition/shinny-consent</code></p></div><p><b>status</b>: Active</p><p><b>scope</b>: <span title=\"Codes:\">treatment</span></p><p><b>category</b>: <span title=\"Codes:\">Patient Consent</span></p><p><b>patient</b>: <a href=\"Patient/JonDoe\">Patient/JonDoe</a></p><h3>Policies</h3><table class=\"grid\"><tr><td style=\"display: none\">-</td><td><b>Authority</b></td></tr><tr><td style=\"display: none\">*</td><td>urn:uuid:SacredHeart</td></tr></table><h3>Provisions</h3><table class=\"grid\"><tr><td style=\"display: none\">-</td><td><b>Type</b></td></tr><tr><td style=\"display: none\">*</td><td>Opt In</td></tr></table></div>"
      },
      "status" : "active",
      "scope" : {
        "coding" : [{
          "code" : "treatment"
        }],
        "text" : "treatment"
      },
      "category" : [{
        "coding" : [{
          "code" : "59284-0",
          "display" : "Patient Consent"
        }]
      }],
      "patient" : {
        "reference" : "Patient/JonDoe"
      },
      "policy" : [{
        "authority" : "urn:uuid:SacredHeart"
      }],
      "provision" : {
        "type" : "permit"
      }
    }
  },
  {
    "resource" : {
      "resourceType" : "Encounter",
      "id" : "EncounterExample",
      "meta" : {
        "lastUpdated" : "2024-02-23T00:00:00Z",
        "profile" : ["http://shinny.org/StructureDefinition/shinny-encounter",
        "http://shinny.org/StructureDefinition/shin-ny-encounter"]
      },
      "text" : {
        "status" : "generated",
        "div" : "<div xmlns=\"http://www.w3.org/1999/xhtml\"><a name=\"Encounter_EncounterExample\"> </a><p class=\"res-header-id\"><b>Generated Narrative: Encounter EncounterExample</b></p><a name=\"EncounterExample\"> </a><a name=\"hcEncounterExample\"> </a><a name=\"EncounterExample-en-US\"> </a><div style=\"display: inline-block; background-color: #d9e0e7; padding: 6px; margin: 4px; border: 1px solid #8da1b4; border-radius: 5px; line-height: 60%\"><p style=\"margin-bottom: 0px\">Last updated: 2024-02-23 00:00:00+0000</p><p style=\"margin-bottom: 0px\">Profiles: <a href=\"StructureDefinition-shinny-encounter.html\">SHINNY Encounter Profile</a>, <code>http://shinny.org/StructureDefinition/shin-ny-encounter</code></p></div><p><b>status</b>: Finished</p><p><b>class</b>: <a href=\"http://terminology.hl7.org/6.0.0/CodeSystem-v3-ActCode.html#v3-ActCode-FLD\">ActCode</a> FLD: field</p><p><b>type</b>: <span title=\"Codes:{http://snomed.info/sct 405672008}\">Direct questioning (procedure)</span></p><p><b>subject</b>: <a href=\"Patient-PatientExample.html\">Jon Doe  Male, DoB: 1981-07-16 ( Medical record number)</a></p></div>"
      },
      "status" : "finished",
      "class" : {
        "system" : "http://terminology.hl7.org/CodeSystem/v3-ActCode",
        "code" : "FLD"
      },
      "type" : [{
        "coding" : [{
          "system" : "http://snomed.info/sct",
          "code" : "405672008",
          "display" : "Direct questioning (procedure)"
        }],
        "text" : "Direct questioning (procedure)"
      }],
      "subject" : {
        "reference" : "Patient/PatientExample"
      }
    }
  },
  {
    "resource" : {
      "resourceType" : "Observation",
      "id" : "ObservationResponseHousingInstability71802-3",
      "meta" : {
        "lastUpdated" : "2024-02-23T00:00:00Z",
        "profile" : ["http://shinny.org/StructureDefinition/shin-ny-observation-screening-response",
        "http://hl7.org/fhir/us/sdoh-clinicalcare/StructureDefinition/SDOHCC-ObservationScreeningResponse"]
      },
      "text" : {
        "status" : "generated",
        "div" : "<div xmlns=\"http://www.w3.org/1999/xhtml\"><a name=\"Observation_ObservationResponseHousingInstability71802-3\"> </a><p class=\"res-header-id\"><b>Generated Narrative: Observation ObservationResponseHousingInstability71802-3</b></p><a name=\"ObservationResponseHousingInstability71802-3\"> </a><a name=\"hcObservationResponseHousingInstability71802-3\"> </a><a name=\"ObservationResponseHousingInstability71802-3-en-US\"> </a><div style=\"display: inline-block; background-color: #d9e0e7; padding: 6px; margin: 4px; border: 1px solid #8da1b4; border-radius: 5px; line-height: 60%\"><p style=\"margin-bottom: 0px\">Last updated: 2024-02-23 00:00:00+0000</p><p style=\"margin-bottom: 0px\">Profiles: <a href=\"StructureDefinition-shin-ny-observation-screening-response.html\">SHINNY Observation Screening Response Profile</a>, <a href=\"http://hl7.org/fhir/us/sdoh-clinicalcare/STU2.1/StructureDefinition-SDOHCC-ObservationScreeningResponse.html\">SDOHCC Observation Screening Response</a></p></div><p><b>status</b>: Final</p><p><b>category</b>: <span title=\"Codes:{http://terminology.hl7.org/CodeSystem/observation-category social-history}\">Social History</span>, <span title=\"Codes:{http://terminology.hl7.org/CodeSystem/observation-category survey}\">Survey</span>, <span title=\"Codes:{http://hl7.org/fhir/us/sdoh-clinicalcare/CodeSystem/SDOHCC-CodeSystemTemporaryCodes housing-instability}, {http://hl7.org/fhir/us/sdoh-clinicalcare/CodeSystem/SDOHCC-CodeSystemTemporaryCodes homelessness}\">Housing Instability</span>, <span title=\"Codes:{http://terminology.hl7.org/CodeSystem/observation-category social-history}\">Social History</span>, <span title=\"Codes:{http://terminology.hl7.org/CodeSystem/observation-category survey}\">Survey</span></p><p><b>code</b>: <span title=\"Codes:{http://loinc.org 71802-3}\">What is your living situation today?</span></p><p><b>subject</b>: <a href=\"Patient-PatientExample.html\">Jon Doe  Male, DoB: 1981-07-16 ( Medical record number)</a></p><p><b>effective</b>: 2023-07-12 16:08:00+0000</p><p><b>issued</b>: 2023-07-12 16:08:00+0000</p><p><b>value</b>: <span title=\"Codes:{http://loinc.org LA31993-1}\">I have a steady place to live</span></p></div>"
      },
      "status" : "final",
      "category" : [{
        "coding" : [{
          "system" : "http://terminology.hl7.org/CodeSystem/observation-category",
          "code" : "social-history",
          "display" : "Social History"
        }]
      },
      {
        "coding" : [{
          "system" : "http://terminology.hl7.org/CodeSystem/observation-category",
          "code" : "survey",
          "display" : "Survey"
        }]
      },
      {
        "coding" : [{
          "system" : "http://hl7.org/fhir/us/sdoh-clinicalcare/CodeSystem/SDOHCC-CodeSystemTemporaryCodes",
          "code" : "housing-instability",
          "display" : "Housing Instability"
        },
        {
          "system" : "http://hl7.org/fhir/us/sdoh-clinicalcare/CodeSystem/SDOHCC-CodeSystemTemporaryCodes",
          "code" : "homelessness",
          "display" : "Homelessness"
        }]
      },
      {
        "coding" : [{
          "system" : "http://terminology.hl7.org/CodeSystem/observation-category",
          "code" : "social-history"
        }]
      },
      {
        "coding" : [{
          "system" : "http://terminology.hl7.org/CodeSystem/observation-category",
          "code" : "survey"
        }]
      }],
      "code" : {
        "coding" : [{
          "system" : "http://loinc.org",
          "code" : "71802-3",
          "display" : "Housing status"
        }],
        "text" : "What is your living situation today?"
      },
      "subject" : {
        "reference" : "Patient/PatientExample"
      },
      "effectiveDateTime" : "2023-07-12T16:08:00.000Z",
      "issued" : "2023-07-12T16:08:00.000Z",
      "valueCodeableConcept" : {
        "coding" : [{
          "system" : "http://loinc.org",
          "code" : "LA31993-1",
          "display" : "I have a steady place to live"
        }]
      }
    }
  },
  {
    "resource" : {
      "resourceType" : "Observation",
      "id" : "ObservationResponseInadequateHousing96778-6",
      "meta" : {
        "lastUpdated" : "2024-02-23T00:00:00Z",
        "profile" : ["http://shinny.org/StructureDefinition/shin-ny-observation-screening-response",
        "http://hl7.org/fhir/us/sdoh-clinicalcare/StructureDefinition/SDOHCC-ObservationScreeningResponse"]
      },
      "text" : {
        "status" : "generated",
        "div" : "<div xmlns=\"http://www.w3.org/1999/xhtml\"><a name=\"Observation_ObservationResponseInadequateHousing96778-6\"> </a><p class=\"res-header-id\"><b>Generated Narrative: Observation ObservationResponseInadequateHousing96778-6</b></p><a name=\"ObservationResponseInadequateHousing96778-6\"> </a><a name=\"hcObservationResponseInadequateHousing96778-6\"> </a><a name=\"ObservationResponseInadequateHousing96778-6-en-US\"> </a><div style=\"display: inline-block; background-color: #d9e0e7; padding: 6px; margin: 4px; border: 1px solid #8da1b4; border-radius: 5px; line-height: 60%\"><p style=\"margin-bottom: 0px\">Last updated: 2024-02-23 00:00:00+0000</p><p style=\"margin-bottom: 0px\">Profiles: <a href=\"StructureDefinition-shin-ny-observation-screening-response.html\">SHINNY Observation Screening Response Profile</a>, <a href=\"http://hl7.org/fhir/us/sdoh-clinicalcare/STU2.1/StructureDefinition-SDOHCC-ObservationScreeningResponse.html\">SDOHCC Observation Screening Response</a></p></div><p><b>status</b>: Final</p><p><b>category</b>: <span title=\"Codes:{http://terminology.hl7.org/CodeSystem/observation-category social-history}\">Social History</span>, <span title=\"Codes:{http://terminology.hl7.org/CodeSystem/observation-category survey}\">Survey</span>, <span title=\"Codes:{http://hl7.org/fhir/us/sdoh-clinicalcare/CodeSystem/SDOHCC-CodeSystemTemporaryCodes inadequate-housing}\">Inadequate Housing</span>, <span title=\"Codes:{http://terminology.hl7.org/CodeSystem/observation-category social-history}\">Social History</span>, <span title=\"Codes:{http://terminology.hl7.org/CodeSystem/observation-category survey}\">Survey</span></p><p><b>code</b>: <span title=\"Codes:{http://loinc.org 96778-6}\">Think about the place you live. Do you have problems with any of the following?</span></p><p><b>subject</b>: <a href=\"Patient-PatientExample.html\">Jon Doe  Male, DoB: 1981-07-16 ( Medical record number)</a></p><p><b>effective</b>: 2023-07-12 16:08:00+0000</p><p><b>issued</b>: 2023-07-12 16:08:00+0000</p><p><b>value</b>: <span title=\"Codes:{http://loinc.org LA28580-1}\">Mold</span></p><p><b>interpretation</b>: <span title=\"Codes:{http://terminology.hl7.org/CodeSystem/v3-ObservationInterpretation POS}\">Positive</span></p></div>"
      },
      "status" : "final",
      "category" : [{
        "coding" : [{
          "system" : "http://terminology.hl7.org/CodeSystem/observation-category",
          "code" : "social-history",
          "display" : "Social History"
        }]
      },
      {
        "coding" : [{
          "system" : "http://terminology.hl7.org/CodeSystem/observation-category",
          "code" : "survey",
          "display" : "Survey"
        }]
      },
      {
        "coding" : [{
          "system" : "http://hl7.org/fhir/us/sdoh-clinicalcare/CodeSystem/SDOHCC-CodeSystemTemporaryCodes",
          "code" : "inadequate-housing",
          "display" : "Inadequate Housing"
        }]
      },
      {
        "coding" : [{
          "system" : "http://terminology.hl7.org/CodeSystem/observation-category",
          "code" : "social-history"
        }]
      },
      {
        "coding" : [{
          "system" : "http://terminology.hl7.org/CodeSystem/observation-category",
          "code" : "survey"
        }]
      }],
      "code" : {
        "coding" : [{
          "system" : "http://loinc.org",
          "code" : "96778-6",
          "display" : "Problems with place where you live"
        }],
        "text" : "Think about the place you live. Do you have problems with any of the following?"
      },
      "subject" : {
        "reference" : "Patient/PatientExample"
      },
      "effectiveDateTime" : "2023-07-12T16:08:00.000Z",
      "issued" : "2023-07-12T16:08:00.000Z",
      "valueCodeableConcept" : {
        "coding" : [{
          "system" : "http://loinc.org",
          "code" : "LA28580-1",
          "display" : "Mold"
        }],
        "text" : "Mold"
      },
      "interpretation" : [{
        "coding" : [{
          "system" : "http://terminology.hl7.org/CodeSystem/v3-ObservationInterpretation",
          "code" : "POS",
          "display" : "Positive"
        }]
      }]
    }
  },
  {
    "resource" : {
      "resourceType" : "Observation",
      "id" : "ObservationResponseFoodInsecurity88122-7",
      "meta" : {
        "lastUpdated" : "2024-02-23T00:00:00Z",
        "profile" : ["http://shinny.org/StructureDefinition/shin-ny-observation-screening-response",
        "http://hl7.org/fhir/us/sdoh-clinicalcare/StructureDefinition/SDOHCC-ObservationScreeningResponse"]
      },
      "text" : {
        "status" : "generated",
        "div" : "<div xmlns=\"http://www.w3.org/1999/xhtml\"><a name=\"Observation_ObservationResponseFoodInsecurity88122-7\"> </a><p class=\"res-header-id\"><b>Generated Narrative: Observation ObservationResponseFoodInsecurity88122-7</b></p><a name=\"ObservationResponseFoodInsecurity88122-7\"> </a><a name=\"hcObservationResponseFoodInsecurity88122-7\"> </a><a name=\"ObservationResponseFoodInsecurity88122-7-en-US\"> </a><div style=\"display: inline-block; background-color: #d9e0e7; padding: 6px; margin: 4px; border: 1px solid #8da1b4; border-radius: 5px; line-height: 60%\"><p style=\"margin-bottom: 0px\">Last updated: 2024-02-23 00:00:00+0000</p><p style=\"margin-bottom: 0px\">Profiles: <a href=\"StructureDefinition-shin-ny-observation-screening-response.html\">SHINNY Observation Screening Response Profile</a>, <a href=\"http://hl7.org/fhir/us/sdoh-clinicalcare/STU2.1/StructureDefinition-SDOHCC-ObservationScreeningResponse.html\">SDOHCC Observation Screening Response</a></p></div><p><b>status</b>: Final</p><p><b>category</b>: <span title=\"Codes:{http://terminology.hl7.org/CodeSystem/observation-category social-history}\">Social History</span>, <span title=\"Codes:{http://terminology.hl7.org/CodeSystem/observation-category survey}\">Survey</span>, <span title=\"Codes:{http://hl7.org/fhir/us/sdoh-clinicalcare/CodeSystem/SDOHCC-CodeSystemTemporaryCodes food-insecurity}\">Food Insecurity</span>, <span title=\"Codes:{http://terminology.hl7.org/CodeSystem/observation-category social-history}\">Social History</span>, <span title=\"Codes:{http://terminology.hl7.org/CodeSystem/observation-category survey}\">Survey</span></p><p><b>code</b>: <span title=\"Codes:{http://loinc.org 88122-7}\">Within the past 12 months, you worried that your food would run out before you got money to buy more.</span></p><p><b>subject</b>: <a href=\"Patient-PatientExample.html\">Jon Doe  Male, DoB: 1981-07-16 ( Medical record number)</a></p><p><b>effective</b>: 2023-07-12 16:08:00+0000</p><p><b>issued</b>: 2023-07-12 16:08:00+0000</p><p><b>value</b>: <span title=\"Codes:{http://loinc.org LA28397-0}\">Often true</span></p><p><b>interpretation</b>: <span title=\"Codes:{http://terminology.hl7.org/CodeSystem/v3-ObservationInterpretation POS}\">Positive</span></p></div>"
      },
      "status" : "final",
      "category" : [{
        "coding" : [{
          "system" : "http://terminology.hl7.org/CodeSystem/observation-category",
          "code" : "social-history",
          "display" : "Social History"
        }]
      },
      {
        "coding" : [{
          "system" : "http://terminology.hl7.org/CodeSystem/observation-category",
          "code" : "survey",
          "display" : "Survey"
        }]
      },
      {
        "coding" : [{
          "system" : "http://hl7.org/fhir/us/sdoh-clinicalcare/CodeSystem/SDOHCC-CodeSystemTemporaryCodes",
          "code" : "food-insecurity",
          "display" : "Food Insecurity"
        }]
      },
      {
        "coding" : [{
          "system" : "http://terminology.hl7.org/CodeSystem/observation-category",
          "code" : "social-history"
        }]
      },
      {
        "coding" : [{
          "system" : "http://terminology.hl7.org/CodeSystem/observation-category",
          "code" : "survey"
        }]
      }],
      "code" : {
        "coding" : [{
          "system" : "http://loinc.org",
          "code" : "88122-7",
          "display" : "Within the past 12 months we worried whether our food would run out before we got money to buy more [U.S. FSS]"
        }],
        "text" : "Within the past 12 months, you worried that your food would run out before you got money to buy more."
      },
      "subject" : {
        "reference" : "Patient/PatientExample"
      },
      "effectiveDateTime" : "2023-07-12T16:08:00.000Z",
      "issued" : "2023-07-12T16:08:00.000Z",
      "valueCodeableConcept" : {
        "coding" : [{
          "system" : "http://loinc.org",
          "code" : "LA28397-0",
          "display" : "Often true"
        }],
        "text" : "Often true"
      },
      "interpretation" : [{
        "coding" : [{
          "system" : "http://terminology.hl7.org/CodeSystem/v3-ObservationInterpretation",
          "code" : "POS",
          "display" : "Positive"
        }]
      }]
    }
  },
  {
    "resource" : {
      "resourceType" : "Observation",
      "id" : "ObservationResponseFoodInsecurity88123-5",
      "meta" : {
        "lastUpdated" : "2024-02-23T00:00:00Z",
        "profile" : ["http://shinny.org/StructureDefinition/shin-ny-observation-screening-response",
        "http://hl7.org/fhir/us/sdoh-clinicalcare/StructureDefinition/SDOHCC-ObservationScreeningResponse"]
      },
      "text" : {
        "status" : "generated",
        "div" : "<div xmlns=\"http://www.w3.org/1999/xhtml\"><a name=\"Observation_ObservationResponseFoodInsecurity88123-5\"> </a><p class=\"res-header-id\"><b>Generated Narrative: Observation ObservationResponseFoodInsecurity88123-5</b></p><a name=\"ObservationResponseFoodInsecurity88123-5\"> </a><a name=\"hcObservationResponseFoodInsecurity88123-5\"> </a><a name=\"ObservationResponseFoodInsecurity88123-5-en-US\"> </a><div style=\"display: inline-block; background-color: #d9e0e7; padding: 6px; margin: 4px; border: 1px solid #8da1b4; border-radius: 5px; line-height: 60%\"><p style=\"margin-bottom: 0px\">Last updated: 2024-02-23 00:00:00+0000</p><p style=\"margin-bottom: 0px\">Profiles: <a href=\"StructureDefinition-shin-ny-observation-screening-response.html\">SHINNY Observation Screening Response Profile</a>, <a href=\"http://hl7.org/fhir/us/sdoh-clinicalcare/STU2.1/StructureDefinition-SDOHCC-ObservationScreeningResponse.html\">SDOHCC Observation Screening Response</a></p></div><p><b>status</b>: Final</p><p><b>category</b>: <span title=\"Codes:{http://terminology.hl7.org/CodeSystem/observation-category social-history}\">Social History</span>, <span title=\"Codes:{http://terminology.hl7.org/CodeSystem/observation-category survey}\">Survey</span>, <span title=\"Codes:{http://hl7.org/fhir/us/sdoh-clinicalcare/CodeSystem/SDOHCC-CodeSystemTemporaryCodes food-insecurity}\">Food Insecurity</span>, <span title=\"Codes:{http://terminology.hl7.org/CodeSystem/observation-category social-history}\">Social History</span>, <span title=\"Codes:{http://terminology.hl7.org/CodeSystem/observation-category survey}\">Survey</span></p><p><b>code</b>: <span title=\"Codes:{http://loinc.org 88123-5}\">Within the past 12 months, the food you bought just didn't last and you didn't have money to get more.</span></p><p><b>subject</b>: <a href=\"Patient-PatientExample.html\">Jon Doe  Male, DoB: 1981-07-16 ( Medical record number)</a></p><p><b>effective</b>: 2023-07-12 16:08:00+0000</p><p><b>issued</b>: 2023-07-12 16:08:00+0000</p><p><b>value</b>: <span title=\"Codes:{http://loinc.org LA28397-0}\">Often true</span></p><p><b>interpretation</b>: <span title=\"Codes:{http://terminology.hl7.org/CodeSystem/v3-ObservationInterpretation POS}\">Positive</span></p></div>"
      },
      "status" : "final",
      "category" : [{
        "coding" : [{
          "system" : "http://terminology.hl7.org/CodeSystem/observation-category",
          "code" : "social-history",
          "display" : "Social History"
        }]
      },
      {
        "coding" : [{
          "system" : "http://terminology.hl7.org/CodeSystem/observation-category",
          "code" : "survey",
          "display" : "Survey"
        }]
      },
      {
        "coding" : [{
          "system" : "http://hl7.org/fhir/us/sdoh-clinicalcare/CodeSystem/SDOHCC-CodeSystemTemporaryCodes",
          "code" : "food-insecurity",
          "display" : "Food Insecurity"
        }]
      },
      {
        "coding" : [{
          "system" : "http://terminology.hl7.org/CodeSystem/observation-category",
          "code" : "social-history"
        }]
      },
      {
        "coding" : [{
          "system" : "http://terminology.hl7.org/CodeSystem/observation-category",
          "code" : "survey"
        }]
      }],
      "code" : {
        "coding" : [{
          "system" : "http://loinc.org",
          "code" : "88123-5",
          "display" : "Within the past 12 months the food we bought just didn't last and we didn't have money to get more [U.S. FSS]"
        }],
        "text" : "Within the past 12 months, the food you bought just didn't last and you didn't have money to get more."
      },
      "subject" : {
        "reference" : "Patient/PatientExample"
      },
      "effectiveDateTime" : "2023-07-12T16:08:00.000Z",
      "issued" : "2023-07-12T16:08:00.000Z",
      "valueCodeableConcept" : {
        "coding" : [{
          "system" : "http://loinc.org",
          "code" : "LA28397-0",
          "display" : "Often true"
        }]
      },
      "interpretation" : [{
        "coding" : [{
          "system" : "http://terminology.hl7.org/CodeSystem/v3-ObservationInterpretation",
          "code" : "POS",
          "display" : "Positive"
        }]
      }]
    }
  },
  {
    "resource" : {
      "resourceType" : "Observation",
      "id" : "ObservationResponseTransportationInsecurity93030-5",
      "meta" : {
        "lastUpdated" : "2024-02-23T00:00:00Z",
        "profile" : ["http://shinny.org/StructureDefinition/shin-ny-observation-screening-response",
        "http://hl7.org/fhir/us/sdoh-clinicalcare/StructureDefinition/SDOHCC-ObservationScreeningResponse"]
      },
      "text" : {
        "status" : "generated",
        "div" : "<div xmlns=\"http://www.w3.org/1999/xhtml\"><a name=\"Observation_ObservationResponseTransportationInsecurity93030-5\"> </a><p class=\"res-header-id\"><b>Generated Narrative: Observation ObservationResponseTransportationInsecurity93030-5</b></p><a name=\"ObservationResponseTransportationInsecurity93030-5\"> </a><a name=\"hcObservationResponseTransportationInsecurity93030-5\"> </a><a name=\"ObservationResponseTransportationInsecurity93030-5-en-US\"> </a><div style=\"display: inline-block; background-color: #d9e0e7; padding: 6px; margin: 4px; border: 1px solid #8da1b4; border-radius: 5px; line-height: 60%\"><p style=\"margin-bottom: 0px\">Last updated: 2024-02-23 00:00:00+0000</p><p style=\"margin-bottom: 0px\">Profiles: <a href=\"StructureDefinition-shin-ny-observation-screening-response.html\">SHINNY Observation Screening Response Profile</a>, <a href=\"http://hl7.org/fhir/us/sdoh-clinicalcare/STU2.1/StructureDefinition-SDOHCC-ObservationScreeningResponse.html\">SDOHCC Observation Screening Response</a></p></div><p><b>status</b>: Final</p><p><b>category</b>: <span title=\"Codes:{http://terminology.hl7.org/CodeSystem/observation-category social-history}\">Social History</span>, <span title=\"Codes:{http://terminology.hl7.org/CodeSystem/observation-category survey}\">Survey</span>, <span title=\"Codes:{http://hl7.org/fhir/us/sdoh-clinicalcare/CodeSystem/SDOHCC-CodeSystemTemporaryCodes transportation-insecurity}\">Transportation Insecurity</span>, <span title=\"Codes:{http://terminology.hl7.org/CodeSystem/observation-category social-history}\">Social History</span>, <span title=\"Codes:{http://terminology.hl7.org/CodeSystem/observation-category survey}\">Survey</span></p><p><b>code</b>: <span title=\"Codes:{http://loinc.org 93030-5}\">In the past 12 months, has lack of reliable transportation kept you from medical appointments, meetings, work or from getting things needed for daily living?</span></p><p><b>subject</b>: <a href=\"Patient-PatientExample.html\">Jon Doe  Male, DoB: 1981-07-16 ( Medical record number)</a></p><p><b>effective</b>: 2023-07-12 16:08:00+0000</p><p><b>issued</b>: 2023-07-12 16:08:00+0000</p><p><b>value</b>: <span title=\"Codes:{http://loinc.org LA32-8}\">No</span></p></div>"
      },
      "status" : "final",
      "category" : [{
        "coding" : [{
          "system" : "http://terminology.hl7.org/CodeSystem/observation-category",
          "code" : "social-history",
          "display" : "Social History"
        }]
      },
      {
        "coding" : [{
          "system" : "http://terminology.hl7.org/CodeSystem/observation-category",
          "code" : "survey",
          "display" : "Survey"
        }]
      },
      {
        "coding" : [{
          "system" : "http://hl7.org/fhir/us/sdoh-clinicalcare/CodeSystem/SDOHCC-CodeSystemTemporaryCodes",
          "code" : "transportation-insecurity",
          "display" : "Transportation Insecurity"
        }]
      },
      {
        "coding" : [{
          "system" : "http://terminology.hl7.org/CodeSystem/observation-category",
          "code" : "social-history"
        }]
      },
      {
        "coding" : [{
          "system" : "http://terminology.hl7.org/CodeSystem/observation-category",
          "code" : "survey"
        }]
      }],
      "code" : {
        "coding" : [{
          "system" : "http://loinc.org",
          "code" : "93030-5",
          "display" : "Has lack of transportation kept you from medical appointments, meetings, work, or from getting things needed for daily living"
        }],
        "text" : "In the past 12 months, has lack of reliable transportation kept you from medical appointments, meetings, work or from getting things needed for daily living?"
      },
      "subject" : {
        "reference" : "Patient/PatientExample"
      },
      "effectiveDateTime" : "2023-07-12T16:08:00.000Z",
      "issued" : "2023-07-12T16:08:00.000Z",
      "valueCodeableConcept" : {
        "coding" : [{
          "system" : "http://loinc.org",
          "code" : "LA32-8",
          "display" : "No"
        }]
      }
    }
  },
  {
    "resource" : {
      "resourceType" : "Observation",
      "id" : "ObservationResponseUtilityInsecurity96779-4",
      "meta" : {
        "lastUpdated" : "2024-02-23T00:00:00Z",
        "profile" : ["http://shinny.org/StructureDefinition/shin-ny-observation-screening-response",
        "http://hl7.org/fhir/us/sdoh-clinicalcare/StructureDefinition/SDOHCC-ObservationScreeningResponse"]
      },
      "text" : {
        "status" : "generated",
        "div" : "<div xmlns=\"http://www.w3.org/1999/xhtml\"><a name=\"Observation_ObservationResponseUtilityInsecurity96779-4\"> </a><p class=\"res-header-id\"><b>Generated Narrative: Observation ObservationResponseUtilityInsecurity96779-4</b></p><a name=\"ObservationResponseUtilityInsecurity96779-4\"> </a><a name=\"hcObservationResponseUtilityInsecurity96779-4\"> </a><a name=\"ObservationResponseUtilityInsecurity96779-4-en-US\"> </a><div style=\"display: inline-block; background-color: #d9e0e7; padding: 6px; margin: 4px; border: 1px solid #8da1b4; border-radius: 5px; line-height: 60%\"><p style=\"margin-bottom: 0px\">Last updated: 2024-02-23 00:00:00+0000</p><p style=\"margin-bottom: 0px\">Profiles: <a href=\"StructureDefinition-shin-ny-observation-screening-response.html\">SHINNY Observation Screening Response Profile</a>, <a href=\"http://hl7.org/fhir/us/sdoh-clinicalcare/STU2.1/StructureDefinition-SDOHCC-ObservationScreeningResponse.html\">SDOHCC Observation Screening Response</a></p></div><p><b>status</b>: Final</p><p><b>category</b>: <span title=\"Codes:{http://terminology.hl7.org/CodeSystem/observation-category social-history}\">Social History</span>, <span title=\"Codes:{http://terminology.hl7.org/CodeSystem/observation-category survey}\">Survey</span>, <span title=\"Codes:{http://hl7.org/fhir/us/sdoh-clinicalcare/CodeSystem/SDOHCC-CodeSystemTemporaryCodes sdoh-category-unspecified}\">Utility Insecurity</span>, <span title=\"Codes:{http://terminology.hl7.org/CodeSystem/observation-category social-history}\">Social History</span>, <span title=\"Codes:{http://terminology.hl7.org/CodeSystem/observation-category survey}\">Survey</span></p><p><b>code</b>: <span title=\"Codes:{http://loinc.org 96779-4}\">In the past 12 months has the electric, gas, oil, or water company threatened to shut off services in your home?</span></p><p><b>subject</b>: <a href=\"Patient-PatientExample.html\">Jon Doe  Male, DoB: 1981-07-16 ( Medical record number)</a></p><p><b>effective</b>: 2023-07-12 16:08:00+0000</p><p><b>issued</b>: 2023-07-12 16:08:00+0000</p><p><b>value</b>: <span title=\"Codes:{http://loinc.org LA32-8}\">No</span></p></div>"
      },
      "status" : "final",
      "category" : [{
        "coding" : [{
          "system" : "http://terminology.hl7.org/CodeSystem/observation-category",
          "code" : "social-history",
          "display" : "Social History"
        }]
      },
      {
        "coding" : [{
          "system" : "http://terminology.hl7.org/CodeSystem/observation-category",
          "code" : "survey",
          "display" : "Survey"
        }]
      },
      {
        "coding" : [{
          "system" : "http://hl7.org/fhir/us/sdoh-clinicalcare/CodeSystem/SDOHCC-CodeSystemTemporaryCodes",
          "code" : "sdoh-category-unspecified",
          "display" : "SDOH Category Unspecified"
        }],
        "text" : "Utility Insecurity"
      },
      {
        "coding" : [{
          "system" : "http://terminology.hl7.org/CodeSystem/observation-category",
          "code" : "social-history"
        }]
      },
      {
        "coding" : [{
          "system" : "http://terminology.hl7.org/CodeSystem/observation-category",
          "code" : "survey"
        }]
      }],
      "code" : {
        "coding" : [{
          "system" : "http://loinc.org",
          "code" : "96779-4",
          "display" : "Has the electric, gas, oil, or water company threatened to shut off services in your home in past 12 months"
        }],
        "text" : "In the past 12 months has the electric, gas, oil, or water company threatened to shut off services in your home?"
      },
      "subject" : {
        "reference" : "Patient/PatientExample"
      },
      "effectiveDateTime" : "2023-07-12T16:08:00.000Z",
      "issued" : "2023-07-12T16:08:00.000Z",
      "valueCodeableConcept" : {
        "coding" : [{
          "system" : "http://loinc.org",
          "code" : "LA32-8",
          "display" : "No"
        }]
      }
    }
  },
  {
    "resource" : {
      "resourceType" : "Observation",
      "id" : "ObservationResponseInterpersonalSafety95618-5",
      "meta" : {
        "lastUpdated" : "2024-02-23T00:00:00Z",
        "profile" : ["http://shinny.org/StructureDefinition/shin-ny-observation-screening-response",
        "http://hl7.org/fhir/us/sdoh-clinicalcare/StructureDefinition/SDOHCC-ObservationScreeningResponse"]
      },
      "text" : {
        "status" : "generated",
        "div" : "<div xmlns=\"http://www.w3.org/1999/xhtml\"><a name=\"Observation_ObservationResponseInterpersonalSafety95618-5\"> </a><p class=\"res-header-id\"><b>Generated Narrative: Observation ObservationResponseInterpersonalSafety95618-5</b></p><a name=\"ObservationResponseInterpersonalSafety95618-5\"> </a><a name=\"hcObservationResponseInterpersonalSafety95618-5\"> </a><a name=\"ObservationResponseInterpersonalSafety95618-5-en-US\"> </a><div style=\"display: inline-block; background-color: #d9e0e7; padding: 6px; margin: 4px; border: 1px solid #8da1b4; border-radius: 5px; line-height: 60%\"><p style=\"margin-bottom: 0px\">Last updated: 2024-02-23 00:00:00+0000</p><p style=\"margin-bottom: 0px\">Profiles: <a href=\"StructureDefinition-shin-ny-observation-screening-response.html\">SHINNY Observation Screening Response Profile</a>, <a href=\"http://hl7.org/fhir/us/sdoh-clinicalcare/STU2.1/StructureDefinition-SDOHCC-ObservationScreeningResponse.html\">SDOHCC Observation Screening Response</a></p></div><p><b>status</b>: Final</p><p><b>category</b>: <span title=\"Codes:{http://terminology.hl7.org/CodeSystem/observation-category social-history}\">Social History</span>, <span title=\"Codes:{http://terminology.hl7.org/CodeSystem/observation-category survey}\">Survey</span>, <span title=\"Codes:{http://hl7.org/fhir/us/sdoh-clinicalcare/CodeSystem/SDOHCC-CodeSystemTemporaryCodes sdoh-category-unspecified}\">Interpersonal Safety</span>, <span title=\"Codes:{http://terminology.hl7.org/CodeSystem/observation-category social-history}\">Social History</span>, <span title=\"Codes:{http://terminology.hl7.org/CodeSystem/observation-category survey}\">Survey</span></p><p><b>code</b>: <span title=\"Codes:{http://loinc.org 95618-5}\">How often does anyone, including family and friends, physically hurt you?</span></p><p><b>subject</b>: <a href=\"Patient-PatientExample.html\">Jon Doe  Male, DoB: 1981-07-16 ( Medical record number)</a></p><p><b>effective</b>: 2023-07-12 16:08:00+0000</p><p><b>issued</b>: 2023-07-12 16:08:00+0000</p><p><b>value</b>: <span title=\"Codes:{http://loinc.org LA6270-8}\">Never</span></p></div>"
      },
      "status" : "final",
      "category" : [{
        "coding" : [{
          "system" : "http://terminology.hl7.org/CodeSystem/observation-category",
          "code" : "social-history",
          "display" : "Social History"
        }]
      },
      {
        "coding" : [{
          "system" : "http://terminology.hl7.org/CodeSystem/observation-category",
          "code" : "survey",
          "display" : "Survey"
        }]
      },
      {
        "coding" : [{
          "system" : "http://hl7.org/fhir/us/sdoh-clinicalcare/CodeSystem/SDOHCC-CodeSystemTemporaryCodes",
          "code" : "sdoh-category-unspecified",
          "display" : "SDOH Category Unspecified"
        }],
        "text" : "Interpersonal Safety"
      },
      {
        "coding" : [{
          "system" : "http://terminology.hl7.org/CodeSystem/observation-category",
          "code" : "social-history"
        }]
      },
      {
        "coding" : [{
          "system" : "http://terminology.hl7.org/CodeSystem/observation-category",
          "code" : "survey"
        }]
      }],
      "code" : {
        "coding" : [{
          "system" : "http://loinc.org",
          "code" : "95618-5",
          "display" : "Physically hurt you [HITS]"
        }],
        "text" : "How often does anyone, including family and friends, physically hurt you?"
      },
      "subject" : {
        "reference" : "Patient/PatientExample"
      },
      "effectiveDateTime" : "2023-07-12T16:08:00.000Z",
      "issued" : "2023-07-12T16:08:00.000Z",
      "valueCodeableConcept" : {
        "coding" : [{
          "system" : "http://loinc.org",
          "code" : "LA6270-8",
          "display" : "Never"
        }]
      }
    }
  },
  {
    "resource" : {
      "resourceType" : "Observation",
      "id" : "ObservationResponseInterpersonalSafety95617-7",
      "meta" : {
        "lastUpdated" : "2024-02-23T00:00:00Z",
        "profile" : ["http://shinny.org/StructureDefinition/shin-ny-observation-screening-response",
        "http://hl7.org/fhir/us/sdoh-clinicalcare/StructureDefinition/SDOHCC-ObservationScreeningResponse"]
      },
      "text" : {
        "status" : "generated",
        "div" : "<div xmlns=\"http://www.w3.org/1999/xhtml\"><a name=\"Observation_ObservationResponseInterpersonalSafety95617-7\"> </a><p class=\"res-header-id\"><b>Generated Narrative: Observation ObservationResponseInterpersonalSafety95617-7</b></p><a name=\"ObservationResponseInterpersonalSafety95617-7\"> </a><a name=\"hcObservationResponseInterpersonalSafety95617-7\"> </a><a name=\"ObservationResponseInterpersonalSafety95617-7-en-US\"> </a><div style=\"display: inline-block; background-color: #d9e0e7; padding: 6px; margin: 4px; border: 1px solid #8da1b4; border-radius: 5px; line-height: 60%\"><p style=\"margin-bottom: 0px\">Last updated: 2024-02-23 00:00:00+0000</p><p style=\"margin-bottom: 0px\">Profiles: <a href=\"StructureDefinition-shin-ny-observation-screening-response.html\">SHINNY Observation Screening Response Profile</a>, <a href=\"http://hl7.org/fhir/us/sdoh-clinicalcare/STU2.1/StructureDefinition-SDOHCC-ObservationScreeningResponse.html\">SDOHCC Observation Screening Response</a></p></div><p><b>status</b>: Final</p><p><b>category</b>: <span title=\"Codes:{http://terminology.hl7.org/CodeSystem/observation-category social-history}\">Social History</span>, <span title=\"Codes:{http://terminology.hl7.org/CodeSystem/observation-category survey}\">Survey</span>, <span title=\"Codes:{http://hl7.org/fhir/us/sdoh-clinicalcare/CodeSystem/SDOHCC-CodeSystemTemporaryCodes sdoh-category-unspecified}\">Interpersonal Safety</span>, <span title=\"Codes:{http://terminology.hl7.org/CodeSystem/observation-category social-history}\">Social History</span>, <span title=\"Codes:{http://terminology.hl7.org/CodeSystem/observation-category survey}\">Survey</span></p><p><b>code</b>: <span title=\"Codes:{http://loinc.org 95617-7}\">How often does anyone, including family and friends, insult or talk down to you?</span></p><p><b>subject</b>: <a href=\"Patient-PatientExample.html\">Jon Doe  Male, DoB: 1981-07-16 ( Medical record number)</a></p><p><b>effective</b>: 2023-07-12 16:08:00+0000</p><p><b>issued</b>: 2023-07-12 16:08:00+0000</p><p><b>value</b>: <span title=\"Codes:{http://loinc.org LA6270-8}\">Never</span></p></div>"
      },
      "status" : "final",
      "category" : [{
        "coding" : [{
          "system" : "http://terminology.hl7.org/CodeSystem/observation-category",
          "code" : "social-history",
          "display" : "Social History"
        }]
      },
      {
        "coding" : [{
          "system" : "http://terminology.hl7.org/CodeSystem/observation-category",
          "code" : "survey",
          "display" : "Survey"
        }]
      },
      {
        "coding" : [{
          "system" : "http://hl7.org/fhir/us/sdoh-clinicalcare/CodeSystem/SDOHCC-CodeSystemTemporaryCodes",
          "code" : "sdoh-category-unspecified",
          "display" : "SDOH Category Unspecified"
        }],
        "text" : "Interpersonal Safety"
      },
      {
        "coding" : [{
          "system" : "http://terminology.hl7.org/CodeSystem/observation-category",
          "code" : "social-history"
        }]
      },
      {
        "coding" : [{
          "system" : "http://terminology.hl7.org/CodeSystem/observation-category",
          "code" : "survey"
        }]
      }],
      "code" : {
        "coding" : [{
          "system" : "http://loinc.org",
          "code" : "95617-7",
          "display" : "Insult you or talk down to you [HITS]"
        }],
        "text" : "How often does anyone, including family and friends, insult or talk down to you?"
      },
      "subject" : {
        "reference" : "Patient/PatientExample"
      },
      "effectiveDateTime" : "2023-07-12T16:08:00.000Z",
      "issued" : "2023-07-12T16:08:00.000Z",
      "valueCodeableConcept" : {
        "coding" : [{
          "system" : "http://loinc.org",
          "code" : "LA6270-8",
          "display" : "Never"
        }]
      }
    }
  },
  {
    "resource" : {
      "resourceType" : "Observation",
      "id" : "ObservationResponseInterpersonalSafety95616-9",
      "meta" : {
        "lastUpdated" : "2024-02-23T00:00:00Z",
        "profile" : ["http://shinny.org/StructureDefinition/shin-ny-observation-screening-response",
        "http://hl7.org/fhir/us/sdoh-clinicalcare/StructureDefinition/SDOHCC-ObservationScreeningResponse"]
      },
      "text" : {
        "status" : "generated",
        "div" : "<div xmlns=\"http://www.w3.org/1999/xhtml\"><a name=\"Observation_ObservationResponseInterpersonalSafety95616-9\"> </a><p class=\"res-header-id\"><b>Generated Narrative: Observation ObservationResponseInterpersonalSafety95616-9</b></p><a name=\"ObservationResponseInterpersonalSafety95616-9\"> </a><a name=\"hcObservationResponseInterpersonalSafety95616-9\"> </a><a name=\"ObservationResponseInterpersonalSafety95616-9-en-US\"> </a><div style=\"display: inline-block; background-color: #d9e0e7; padding: 6px; margin: 4px; border: 1px solid #8da1b4; border-radius: 5px; line-height: 60%\"><p style=\"margin-bottom: 0px\">Last updated: 2024-02-23 00:00:00+0000</p><p style=\"margin-bottom: 0px\">Profiles: <a href=\"StructureDefinition-shin-ny-observation-screening-response.html\">SHINNY Observation Screening Response Profile</a>, <a href=\"http://hl7.org/fhir/us/sdoh-clinicalcare/STU2.1/StructureDefinition-SDOHCC-ObservationScreeningResponse.html\">SDOHCC Observation Screening Response</a></p></div><p><b>status</b>: Final</p><p><b>category</b>: <span title=\"Codes:{http://terminology.hl7.org/CodeSystem/observation-category social-history}\">Social History</span>, <span title=\"Codes:{http://terminology.hl7.org/CodeSystem/observation-category survey}\">Survey</span>, <span title=\"Codes:{http://hl7.org/fhir/us/sdoh-clinicalcare/CodeSystem/SDOHCC-CodeSystemTemporaryCodes sdoh-category-unspecified}\">Interpersonal Safety</span>, <span title=\"Codes:{http://terminology.hl7.org/CodeSystem/observation-category social-history}\">Social History</span>, <span title=\"Codes:{http://terminology.hl7.org/CodeSystem/observation-category survey}\">Survey</span></p><p><b>code</b>: <span title=\"Codes:{http://loinc.org 95616-9}\">How often does anyone, including family and friends, threaten you with harm?</span></p><p><b>subject</b>: <a href=\"Patient-PatientExample.html\">Jon Doe  Male, DoB: 1981-07-16 ( Medical record number)</a></p><p><b>effective</b>: 2023-07-12 16:08:00+0000</p><p><b>issued</b>: 2023-07-12 16:08:00+0000</p><p><b>value</b>: <span title=\"Codes:{http://loinc.org LA6270-8}\">Never</span></p></div>"
      },
      "status" : "final",
      "category" : [{
        "coding" : [{
          "system" : "http://terminology.hl7.org/CodeSystem/observation-category",
          "code" : "social-history",
          "display" : "Social History"
        }]
      },
      {
        "coding" : [{
          "system" : "http://terminology.hl7.org/CodeSystem/observation-category",
          "code" : "survey",
          "display" : "Survey"
        }]
      },
      {
        "coding" : [{
          "system" : "http://hl7.org/fhir/us/sdoh-clinicalcare/CodeSystem/SDOHCC-CodeSystemTemporaryCodes",
          "code" : "sdoh-category-unspecified",
          "display" : "SDOH Category Unspecified"
        }],
        "text" : "Interpersonal Safety"
      },
      {
        "coding" : [{
          "system" : "http://terminology.hl7.org/CodeSystem/observation-category",
          "code" : "social-history"
        }]
      },
      {
        "coding" : [{
          "system" : "http://terminology.hl7.org/CodeSystem/observation-category",
          "code" : "survey"
        }]
      }],
      "code" : {
        "coding" : [{
          "system" : "http://loinc.org",
          "code" : "95616-9",
          "display" : "Threaten you with physical harm [HITS]"
        }],
        "text" : "How often does anyone, including family and friends, threaten you with harm?"
      },
      "subject" : {
        "reference" : "Patient/PatientExample"
      },
      "effectiveDateTime" : "2023-07-12T16:08:00.000Z",
      "issued" : "2023-07-12T16:08:00.000Z",
      "valueCodeableConcept" : {
        "coding" : [{
          "system" : "http://loinc.org",
          "code" : "LA6270-8",
          "display" : "Never"
        }]
      }
    }
  },
  {
    "resource" : {
      "resourceType" : "Observation",
      "id" : "ObservationResponseInterpersonalSafety95615-1",
      "meta" : {
        "lastUpdated" : "2024-02-23T00:00:00Z",
        "profile" : ["http://shinny.org/StructureDefinition/shin-ny-observation-screening-response",
        "http://hl7.org/fhir/us/sdoh-clinicalcare/StructureDefinition/SDOHCC-ObservationScreeningResponse"]
      },
      "text" : {
        "status" : "generated",
        "div" : "<div xmlns=\"http://www.w3.org/1999/xhtml\"><a name=\"Observation_ObservationResponseInterpersonalSafety95615-1\"> </a><p class=\"res-header-id\"><b>Generated Narrative: Observation ObservationResponseInterpersonalSafety95615-1</b></p><a name=\"ObservationResponseInterpersonalSafety95615-1\"> </a><a name=\"hcObservationResponseInterpersonalSafety95615-1\"> </a><a name=\"ObservationResponseInterpersonalSafety95615-1-en-US\"> </a><div style=\"display: inline-block; background-color: #d9e0e7; padding: 6px; margin: 4px; border: 1px solid #8da1b4; border-radius: 5px; line-height: 60%\"><p style=\"margin-bottom: 0px\">Last updated: 2024-02-23 00:00:00+0000</p><p style=\"margin-bottom: 0px\">Profiles: <a href=\"StructureDefinition-shin-ny-observation-screening-response.html\">SHINNY Observation Screening Response Profile</a>, <a href=\"http://hl7.org/fhir/us/sdoh-clinicalcare/STU2.1/StructureDefinition-SDOHCC-ObservationScreeningResponse.html\">SDOHCC Observation Screening Response</a></p></div><p><b>status</b>: Final</p><p><b>category</b>: <span title=\"Codes:{http://terminology.hl7.org/CodeSystem/observation-category social-history}\">Social History</span>, <span title=\"Codes:{http://terminology.hl7.org/CodeSystem/observation-category survey}\">Survey</span>, <span title=\"Codes:{http://hl7.org/fhir/us/sdoh-clinicalcare/CodeSystem/SDOHCC-CodeSystemTemporaryCodes sdoh-category-unspecified}\">Interpersonal Safety</span>, <span title=\"Codes:{http://terminology.hl7.org/CodeSystem/observation-category social-history}\">Social History</span>, <span title=\"Codes:{http://terminology.hl7.org/CodeSystem/observation-category survey}\">Survey</span></p><p><b>code</b>: <span title=\"Codes:{http://loinc.org 95615-1}\">How often does anyone, including family and friends, scream or curse at you?</span></p><p><b>subject</b>: <a href=\"Patient-PatientExample.html\">Jon Doe  Male, DoB: 1981-07-16 ( Medical record number)</a></p><p><b>effective</b>: 2023-07-12 16:08:00+0000</p><p><b>issued</b>: 2023-07-12 16:08:00+0000</p><p><b>value</b>: <span title=\"Codes:{http://loinc.org LA6270-8}\">Never</span></p></div>"
      },
      "status" : "final",
      "category" : [{
        "coding" : [{
          "system" : "http://terminology.hl7.org/CodeSystem/observation-category",
          "code" : "social-history",
          "display" : "Social History"
        }]
      },
      {
        "coding" : [{
          "system" : "http://terminology.hl7.org/CodeSystem/observation-category",
          "code" : "survey",
          "display" : "Survey"
        }]
      },
      {
        "coding" : [{
          "system" : "http://hl7.org/fhir/us/sdoh-clinicalcare/CodeSystem/SDOHCC-CodeSystemTemporaryCodes",
          "code" : "sdoh-category-unspecified",
          "display" : "SDOH Category Unspecified"
        }],
        "text" : "Interpersonal Safety"
      },
      {
        "coding" : [{
          "system" : "http://terminology.hl7.org/CodeSystem/observation-category",
          "code" : "social-history"
        }]
      },
      {
        "coding" : [{
          "system" : "http://terminology.hl7.org/CodeSystem/observation-category",
          "code" : "survey"
        }]
      }],
      "code" : {
        "coding" : [{
          "system" : "http://loinc.org",
          "code" : "95615-1",
          "display" : "Scream or curse at you [HITS]"
        }],
        "text" : "How often does anyone, including family and friends, scream or curse at you?"
      },
      "subject" : {
        "reference" : "Patient/PatientExample"
      },
      "effectiveDateTime" : "2023-07-12T16:08:00.000Z",
      "issued" : "2023-07-12T16:08:00.000Z",
      "valueCodeableConcept" : {
        "coding" : [{
          "system" : "http://loinc.org",
          "code" : "LA6270-8",
          "display" : "Never"
        }]
      }
    }
  },
  {
    "resource" : {
      "resourceType" : "Observation",
      "id" : "ObservationResponseInterpersonalSafety95614-4",
      "meta" : {
        "lastUpdated" : "2024-02-23T00:00:00Z",
        "profile" : ["http://shinny.org/StructureDefinition/shin-ny-observation-screening-response",
        "http://hl7.org/fhir/us/sdoh-clinicalcare/StructureDefinition/SDOHCC-ObservationScreeningResponse"]
      },
      "text" : {
        "status" : "generated",
        "div" : "<div xmlns=\"http://www.w3.org/1999/xhtml\"><a name=\"Observation_ObservationResponseInterpersonalSafety95614-4\"> </a><p class=\"res-header-id\"><b>Generated Narrative: Observation ObservationResponseInterpersonalSafety95614-4</b></p><a name=\"ObservationResponseInterpersonalSafety95614-4\"> </a><a name=\"hcObservationResponseInterpersonalSafety95614-4\"> </a><a name=\"ObservationResponseInterpersonalSafety95614-4-en-US\"> </a><div style=\"display: inline-block; background-color: #d9e0e7; padding: 6px; margin: 4px; border: 1px solid #8da1b4; border-radius: 5px; line-height: 60%\"><p style=\"margin-bottom: 0px\">Last updated: 2024-02-23 00:00:00+0000</p><p style=\"margin-bottom: 0px\">Profiles: <a href=\"StructureDefinition-shin-ny-observation-screening-response.html\">SHINNY Observation Screening Response Profile</a>, <a href=\"http://hl7.org/fhir/us/sdoh-clinicalcare/STU2.1/StructureDefinition-SDOHCC-ObservationScreeningResponse.html\">SDOHCC Observation Screening Response</a></p></div><p><b>status</b>: Final</p><p><b>category</b>: <span title=\"Codes:{http://terminology.hl7.org/CodeSystem/observation-category social-history}\">Social History</span>, <span title=\"Codes:{http://terminology.hl7.org/CodeSystem/observation-category survey}\">Survey</span>, <span title=\"Codes:{http://hl7.org/fhir/us/sdoh-clinicalcare/CodeSystem/SDOHCC-CodeSystemTemporaryCodes sdoh-category-unspecified}\">Interpersonal Safety</span>, <span title=\"Codes:{http://terminology.hl7.org/CodeSystem/observation-category social-history}\">Social History</span>, <span title=\"Codes:{http://terminology.hl7.org/CodeSystem/observation-category survey}\">Survey</span></p><p><b>code</b>: <span title=\"Codes:{http://loinc.org 95614-4}\">Safety total score</span></p><p><b>subject</b>: <a href=\"Patient-PatientExample.html\">Jon Doe  Male, DoB: 1981-07-16 ( Medical record number)</a></p><p><b>effective</b>: 2023-07-12 16:08:00+0000</p><p><b>issued</b>: 2023-07-12 16:08:00+0000</p><p><b>value</b>: <span title=\"Codes:\">4</span></p><p><b>derivedFrom</b>: </p><ul><li><a href=\"Observation-ObservationResponseInterpersonalSafety95618-5.html\">Observation Physically hurt you [HITS]</a></li><li><a href=\"Observation-ObservationResponseInterpersonalSafety95617-7.html\">Observation Insult you or talk down to you [HITS]</a></li><li><a href=\"Observation-ObservationResponseInterpersonalSafety95616-9.html\">Observation Threaten you with physical harm [HITS]</a></li><li><a href=\"Observation-ObservationResponseInterpersonalSafety95615-1.html\">Observation Scream or curse at you [HITS]</a></li></ul></div>"
      },
      "status" : "final",
      "category" : [{
        "coding" : [{
          "system" : "http://terminology.hl7.org/CodeSystem/observation-category",
          "code" : "social-history",
          "display" : "Social History"
        }]
      },
      {
        "coding" : [{
          "system" : "http://terminology.hl7.org/CodeSystem/observation-category",
          "code" : "survey",
          "display" : "Survey"
        }]
      },
      {
        "coding" : [{
          "system" : "http://hl7.org/fhir/us/sdoh-clinicalcare/CodeSystem/SDOHCC-CodeSystemTemporaryCodes",
          "code" : "sdoh-category-unspecified",
          "display" : "SDOH Category Unspecified"
        }],
        "text" : "Interpersonal Safety"
      },
      {
        "coding" : [{
          "system" : "http://terminology.hl7.org/CodeSystem/observation-category",
          "code" : "social-history"
        }]
      },
      {
        "coding" : [{
          "system" : "http://terminology.hl7.org/CodeSystem/observation-category",
          "code" : "survey"
        }]
      }],
      "code" : {
        "coding" : [{
          "system" : "http://loinc.org",
          "code" : "95614-4",
          "display" : "Total score [HITS]"
        }],
        "text" : "Safety total score"
      },
      "subject" : {
        "reference" : "Patient/PatientExample"
      },
      "effectiveDateTime" : "2023-07-12T16:08:00.000Z",
      "issued" : "2023-07-12T16:08:00.000Z",
      "valueCodeableConcept" : {
        "coding" : [{
          "system" : "http://unitsofmeasure.org",
          "display" : "{Number}"
        }],
        "text" : "4"
      },
      "derivedFrom" : [{
        "reference" : "Observation/ObservationResponseInterpersonalSafety95618-5"
      },
      {
        "reference" : "Observation/ObservationResponseInterpersonalSafety95617-7"
      },
      {
        "reference" : "Observation/ObservationResponseInterpersonalSafety95616-9"
      },
      {
        "reference" : "Observation/ObservationResponseInterpersonalSafety95615-1"
      }]
    }
  },
  {
    "resource" : {
      "resourceType" : "Observation",
      "id" : "ObservationResponseMainAHCScreeningGroup96777-8",
      "meta" : {
        "lastUpdated" : "2024-02-23T00:00:00Z",
        "profile" : ["http://shinny.org/StructureDefinition/shin-ny-observation-screening-response",
        "http://hl7.org/fhir/us/sdoh-clinicalcare/StructureDefinition/SDOHCC-ObservationScreeningResponse"]
      },
      "text" : {
        "status" : "generated",
        "div" : "<div xmlns=\"http://www.w3.org/1999/xhtml\"><a name=\"Observation_ObservationResponseMainAHCScreeningGroup96777-8\"> </a><p class=\"res-header-id\"><b>Generated Narrative: Observation ObservationResponseMainAHCScreeningGroup96777-8</b></p><a name=\"ObservationResponseMainAHCScreeningGroup96777-8\"> </a><a name=\"hcObservationResponseMainAHCScreeningGroup96777-8\"> </a><a name=\"ObservationResponseMainAHCScreeningGroup96777-8-en-US\"> </a><div style=\"display: inline-block; background-color: #d9e0e7; padding: 6px; margin: 4px; border: 1px solid #8da1b4; border-radius: 5px; line-height: 60%\"><p style=\"margin-bottom: 0px\">Last updated: 2024-02-23 00:00:00+0000</p><p style=\"margin-bottom: 0px\">Profiles: <a href=\"StructureDefinition-shin-ny-observation-screening-response.html\">SHINNY Observation Screening Response Profile</a>, <a href=\"http://hl7.org/fhir/us/sdoh-clinicalcare/STU2.1/StructureDefinition-SDOHCC-ObservationScreeningResponse.html\">SDOHCC Observation Screening Response</a></p></div><p><b>status</b>: Final</p><p><b>category</b>: <span title=\"Codes:{http://terminology.hl7.org/CodeSystem/observation-category social-history}\">Social History</span>, <span title=\"Codes:{http://terminology.hl7.org/CodeSystem/observation-category survey}\">Survey</span>, <span title=\"Codes:{http://hl7.org/fhir/us/sdoh-clinicalcare/CodeSystem/SDOHCC-CodeSystemTemporaryCodes Housing Instability}\">housing-instability</span>, <span title=\"Codes:{http://hl7.org/fhir/us/sdoh-clinicalcare/CodeSystem/SDOHCC-CodeSystemTemporaryCodes housing-instability}, {http://hl7.org/fhir/us/sdoh-clinicalcare/CodeSystem/SDOHCC-CodeSystemTemporaryCodes inadequate-housing}, {http://hl7.org/fhir/us/sdoh-clinicalcare/CodeSystem/SDOHCC-CodeSystemTemporaryCodes food-insecurity}, {http://hl7.org/fhir/us/sdoh-clinicalcare/CodeSystem/SDOHCC-CodeSystemTemporaryCodes transportation-insecurity}, {http://hl7.org/fhir/us/sdoh-clinicalcare/CodeSystem/SDOHCC-CodeSystemTemporaryCodes sdoh-category-unspecified}\">Housing Instability</span>, <span title=\"Codes:{http://terminology.hl7.org/CodeSystem/observation-category social-history}\">Social History</span>, <span title=\"Codes:{http://terminology.hl7.org/CodeSystem/observation-category survey}\">Survey</span></p><p><b>code</b>: <span title=\"Codes:{http://loinc.org 96777-8}\">Accountable health communities (AHC) health-related social needs screening (HRSN) tool</span></p><p><b>subject</b>: <a href=\"Patient-PatientExample.html\">Jon Doe  Male, DoB: 1981-07-16 ( Medical record number)</a></p><p><b>encounter</b>: <a href=\"Encounter-EncounterExample.html\">Encounter: status = finished; class = field (ActCode#FLD); type = Direct questioning (procedure)</a></p><p><b>effective</b>: 2020-09-10 21:56:54+0000</p><p><b>issued</b>: 2020-09-10 21:56:54+0000</p><p><b>interpretation</b>: <span title=\"Codes:{http://terminology.hl7.org/CodeSystem/v3-ObservationInterpretation POS}\">Positive</span></p><p><b>hasMember</b>: </p><ul><li><a href=\"Observation-ObservationResponseHousingInstability71802-3.html\">Observation Housing status</a></li><li><a href=\"Observation-ObservationResponseInadequateHousing96778-6.html\">Observation Problems with place where you live</a></li><li><a href=\"Observation-ObservationResponseFoodInsecurity88122-7.html\">Observation Within the past 12 months we worried whether our food would run out before we got money to buy more [U.S. FSS]</a></li><li><a href=\"Observation-ObservationResponseFoodInsecurity88123-5.html\">Observation Within the past 12 months the food we bought just didn't last and we didn't have money to get more [U.S. FSS]</a></li><li><a href=\"Observation-ObservationResponseTransportationInsecurity93030-5.html\">Observation Has lack of transportation kept you from medical appointments, meetings, work, or from getting things needed for daily living</a></li><li><a href=\"Observation-ObservationResponseUtilityInsecurity96779-4.html\">Observation Has the electric, gas, oil, or water company threatened to shut off services in your home in past 12 months</a></li><li><a href=\"Observation-ObservationResponseInterpersonalSafety95618-5.html\">Observation Physically hurt you [HITS]</a></li><li><a href=\"Observation-ObservationResponseInterpersonalSafety95617-7.html\">Observation Insult you or talk down to you [HITS]</a></li><li><a href=\"Observation-ObservationResponseInterpersonalSafety95616-9.html\">Observation Threaten you with physical harm [HITS]</a></li><li><a href=\"Observation-ObservationResponseInterpersonalSafety95615-1.html\">Observation Scream or curse at you [HITS]</a></li><li><a href=\"Observation-ObservationResponseInterpersonalSafety95614-4.html\">Observation Total score [HITS]</a></li></ul></div>"
      },
      "status" : "final",
      "category" : [{
        "coding" : [{
          "system" : "http://terminology.hl7.org/CodeSystem/observation-category",
          "code" : "social-history",
          "display" : "Social History"
        }]
      },
      {
        "coding" : [{
          "system" : "http://terminology.hl7.org/CodeSystem/observation-category",
          "code" : "survey",
          "display" : "Survey"
        }]
      },
      {
        "coding" : [{
          "system" : "http://hl7.org/fhir/us/sdoh-clinicalcare/CodeSystem/SDOHCC-CodeSystemTemporaryCodes",
          "code" : "Housing Instability",
          "display" : "housing-instability"
        }]
      },
      {
        "coding" : [{
          "system" : "http://hl7.org/fhir/us/sdoh-clinicalcare/CodeSystem/SDOHCC-CodeSystemTemporaryCodes",
          "code" : "housing-instability",
          "display" : "Housing Instability"
        },
        {
          "system" : "http://hl7.org/fhir/us/sdoh-clinicalcare/CodeSystem/SDOHCC-CodeSystemTemporaryCodes",
          "code" : "inadequate-housing",
          "display" : "Inadequate Housing"
        },
        {
          "system" : "http://hl7.org/fhir/us/sdoh-clinicalcare/CodeSystem/SDOHCC-CodeSystemTemporaryCodes",
          "code" : "food-insecurity",
          "display" : "Food Insecurity"
        },
        {
          "system" : "http://hl7.org/fhir/us/sdoh-clinicalcare/CodeSystem/SDOHCC-CodeSystemTemporaryCodes",
          "code" : "transportation-insecurity",
          "display" : "Transportation Insecurity"
        },
        {
          "system" : "http://hl7.org/fhir/us/sdoh-clinicalcare/CodeSystem/SDOHCC-CodeSystemTemporaryCodes",
          "code" : "sdoh-category-unspecified",
          "display" : "SDOH Category Unspecified"
        }]
      },
      {
        "coding" : [{
          "system" : "http://terminology.hl7.org/CodeSystem/observation-category",
          "code" : "social-history"
        }]
      },
      {
        "coding" : [{
          "system" : "http://terminology.hl7.org/CodeSystem/observation-category",
          "code" : "survey"
        }]
      }],
      "code" : {
        "coding" : [{
          "system" : "http://loinc.org",
          "code" : "96777-8",
          "display" : "Accountable health communities (AHC) health-related social needs screening (HRSN) tool"
        }]
      },
      "subject" : {
        "reference" : "Patient/PatientExample"
      },
      "encounter" : {
        "reference" : "Encounter/EncounterExample"
      },
      "effectiveDateTime" : "2020-09-10T21:56:54.671Z",
      "issued" : "2020-09-10T21:56:54.671Z",
      "interpretation" : [{
        "coding" : [{
          "system" : "http://terminology.hl7.org/CodeSystem/v3-ObservationInterpretation",
          "code" : "POS",
          "display" : "Positive"
        }]
      }],
      "hasMember" : [{
        "reference" : "Observation/ObservationResponseHousingInstability71802-3"
      },
      {
        "reference" : "Observation/ObservationResponseInadequateHousing96778-6"
      },
      {
        "reference" : "Observation/ObservationResponseFoodInsecurity88122-7"
      },
      {
        "reference" : "Observation/ObservationResponseFoodInsecurity88123-5"
      },
      {
        "reference" : "Observation/ObservationResponseTransportationInsecurity93030-5"
      },
      {
        "reference" : "Observation/ObservationResponseUtilityInsecurity96779-4"
      },
      {
        "reference" : "Observation/ObservationResponseInterpersonalSafety95618-5"
      },
      {
        "reference" : "Observation/ObservationResponseInterpersonalSafety95617-7"
      },
      {
        "reference" : "Observation/ObservationResponseInterpersonalSafety95616-9"
      },
      {
        "reference" : "Observation/ObservationResponseInterpersonalSafety95615-1"
      },
      {
        "reference" : "Observation/ObservationResponseInterpersonalSafety95614-4"
      }]
    }
  },
  {
    "resource" : {
      "resourceType" : "Observation",
      "id" : "ObservationResponseFinancialInsecurity76513-1",
      "meta" : {
        "lastUpdated" : "2024-02-23T00:00:00Z",
        "profile" : ["http://shinny.org/StructureDefinition/shin-ny-observation-screening-response",
        "http://hl7.org/fhir/us/sdoh-clinicalcare/StructureDefinition/SDOHCC-ObservationScreeningResponse"]
      },
      "text" : {
        "status" : "generated",
        "div" : "<div xmlns=\"http://www.w3.org/1999/xhtml\"><a name=\"Observation_ObservationResponseFinancialInsecurity76513-1\"> </a><p class=\"res-header-id\"><b>Generated Narrative: Observation ObservationResponseFinancialInsecurity76513-1</b></p><a name=\"ObservationResponseFinancialInsecurity76513-1\"> </a><a name=\"hcObservationResponseFinancialInsecurity76513-1\"> </a><a name=\"ObservationResponseFinancialInsecurity76513-1-en-US\"> </a><div style=\"display: inline-block; background-color: #d9e0e7; padding: 6px; margin: 4px; border: 1px solid #8da1b4; border-radius: 5px; line-height: 60%\"><p style=\"margin-bottom: 0px\">Last updated: 2024-02-23 00:00:00+0000</p><p style=\"margin-bottom: 0px\">Profiles: <a href=\"StructureDefinition-shin-ny-observation-screening-response.html\">SHINNY Observation Screening Response Profile</a>, <a href=\"http://hl7.org/fhir/us/sdoh-clinicalcare/STU2.1/StructureDefinition-SDOHCC-ObservationScreeningResponse.html\">SDOHCC Observation Screening Response</a></p></div><p><b>status</b>: Final</p><p><b>category</b>: <span title=\"Codes:{http://terminology.hl7.org/CodeSystem/observation-category social-history}\">Social History</span>, <span title=\"Codes:{http://terminology.hl7.org/CodeSystem/observation-category survey}\">Survey</span>, <span title=\"Codes:{http://hl7.org/fhir/us/sdoh-clinicalcare/CodeSystem/SDOHCC-CodeSystemTemporaryCodes financial-insecurity}\">Financial Insecurity</span>, <span title=\"Codes:{http://terminology.hl7.org/CodeSystem/observation-category social-history}\">Social History</span>, <span title=\"Codes:{http://terminology.hl7.org/CodeSystem/observation-category survey}\">Survey</span></p><p><b>code</b>: <span title=\"Codes:{http://loinc.org 76513-1}\">How hard is it for you to pay for the very basics like food, housing, medical care, and heating?</span></p><p><b>subject</b>: <a href=\"Patient-PatientExample.html\">Jon Doe  Male, DoB: 1981-07-16 ( Medical record number)</a></p><p><b>effective</b>: 2023-07-12 16:08:00+0000</p><p><b>issued</b>: 2023-07-12 16:08:00+0000</p><p><b>value</b>: <span title=\"Codes:{http://loinc.org LA22683-9}\">Somewhat Hard</span></p><p><b>interpretation</b>: <span title=\"Codes:{http://terminology.hl7.org/CodeSystem/v3-ObservationInterpretation POS}\">Positive</span></p></div>"
      },
      "status" : "final",
      "category" : [{
        "coding" : [{
          "system" : "http://terminology.hl7.org/CodeSystem/observation-category",
          "code" : "social-history",
          "display" : "Social History"
        }]
      },
      {
        "coding" : [{
          "system" : "http://terminology.hl7.org/CodeSystem/observation-category",
          "code" : "survey",
          "display" : "Survey"
        }]
      },
      {
        "coding" : [{
          "system" : "http://hl7.org/fhir/us/sdoh-clinicalcare/CodeSystem/SDOHCC-CodeSystemTemporaryCodes",
          "code" : "financial-insecurity",
          "display" : "Financial Insecurity"
        }]
      },
      {
        "coding" : [{
          "system" : "http://terminology.hl7.org/CodeSystem/observation-category",
          "code" : "social-history"
        }]
      },
      {
        "coding" : [{
          "system" : "http://terminology.hl7.org/CodeSystem/observation-category",
          "code" : "survey"
        }]
      }],
      "code" : {
        "coding" : [{
          "system" : "http://loinc.org",
          "code" : "76513-1",
          "display" : "How hard is it for you to pay for the very basics like food, housing, medical care, and heating"
        }],
        "text" : "How hard is it for you to pay for the very basics like food, housing, medical care, and heating?"
      },
      "subject" : {
        "reference" : "Patient/PatientExample"
      },
      "effectiveDateTime" : "2023-07-12T16:08:00.000Z",
      "issued" : "2023-07-12T16:08:00.000Z",
      "valueCodeableConcept" : {
        "coding" : [{
          "system" : "http://loinc.org",
          "code" : "LA22683-9",
          "display" : "Somewhat Hard"
        }]
      },
      "interpretation" : [{
        "coding" : [{
          "system" : "http://terminology.hl7.org/CodeSystem/v3-ObservationInterpretation",
          "code" : "POS",
          "display" : "Positive"
        }]
      }]
    }
  },
  {
    "resource" : {
      "resourceType" : "Observation",
      "id" : "ObservationResponseEmploymentStatus96780-2",
      "meta" : {
        "lastUpdated" : "2024-02-23T00:00:00Z",
        "profile" : ["http://shinny.org/StructureDefinition/shin-ny-observation-screening-response",
        "http://hl7.org/fhir/us/sdoh-clinicalcare/StructureDefinition/SDOHCC-ObservationScreeningResponse"]
      },
      "text" : {
        "status" : "generated",
        "div" : "<div xmlns=\"http://www.w3.org/1999/xhtml\"><a name=\"Observation_ObservationResponseEmploymentStatus96780-2\"> </a><p class=\"res-header-id\"><b>Generated Narrative: Observation ObservationResponseEmploymentStatus96780-2</b></p><a name=\"ObservationResponseEmploymentStatus96780-2\"> </a><a name=\"hcObservationResponseEmploymentStatus96780-2\"> </a><a name=\"ObservationResponseEmploymentStatus96780-2-en-US\"> </a><div style=\"display: inline-block; background-color: #d9e0e7; padding: 6px; margin: 4px; border: 1px solid #8da1b4; border-radius: 5px; line-height: 60%\"><p style=\"margin-bottom: 0px\">Last updated: 2024-02-23 00:00:00+0000</p><p style=\"margin-bottom: 0px\">Profiles: <a href=\"StructureDefinition-shin-ny-observation-screening-response.html\">SHINNY Observation Screening Response Profile</a>, <a href=\"http://hl7.org/fhir/us/sdoh-clinicalcare/STU2.1/StructureDefinition-SDOHCC-ObservationScreeningResponse.html\">SDOHCC Observation Screening Response</a></p></div><p><b>status</b>: Final</p><p><b>category</b>: <span title=\"Codes:{http://terminology.hl7.org/CodeSystem/observation-category social-history}\">Social History</span>, <span title=\"Codes:{http://terminology.hl7.org/CodeSystem/observation-category survey}\">Survey</span>, <span title=\"Codes:{http://hl7.org/fhir/us/sdoh-clinicalcare/CodeSystem/SDOHCC-CodeSystemTemporaryCodes employment-status}\">Employment Status</span>, <span title=\"Codes:{http://terminology.hl7.org/CodeSystem/observation-category social-history}\">Social History</span>, <span title=\"Codes:{http://terminology.hl7.org/CodeSystem/observation-category survey}\">Survey</span></p><p><b>code</b>: <span title=\"Codes:{http://loinc.org 96780-2}\">Do you want help finding or keeping work or a job?</span></p><p><b>subject</b>: <a href=\"Patient-PatientExample.html\">Jon Doe  Male, DoB: 1981-07-16 ( Medical record number)</a></p><p><b>effective</b>: 2023-07-12 16:08:00+0000</p><p><b>issued</b>: 2023-07-12 16:08:00+0000</p><p><b>value</b>: <span title=\"Codes:{http://loinc.org LA31981-6}\">Yes, help finding work</span></p><p><b>interpretation</b>: <span title=\"Codes:{http://terminology.hl7.org/CodeSystem/v3-ObservationInterpretation POS}\">Positive</span></p></div>"
      },
      "status" : "final",
      "category" : [{
        "coding" : [{
          "system" : "http://terminology.hl7.org/CodeSystem/observation-category",
          "code" : "social-history",
          "display" : "Social History"
        }]
      },
      {
        "coding" : [{
          "system" : "http://terminology.hl7.org/CodeSystem/observation-category",
          "code" : "survey",
          "display" : "Survey"
        }]
      },
      {
        "coding" : [{
          "system" : "http://hl7.org/fhir/us/sdoh-clinicalcare/CodeSystem/SDOHCC-CodeSystemTemporaryCodes",
          "code" : "employment-status",
          "display" : "Employment Status"
        }]
      },
      {
        "coding" : [{
          "system" : "http://terminology.hl7.org/CodeSystem/observation-category",
          "code" : "social-history"
        }]
      },
      {
        "coding" : [{
          "system" : "http://terminology.hl7.org/CodeSystem/observation-category",
          "code" : "survey"
        }]
      }],
      "code" : {
        "coding" : [{
          "system" : "http://loinc.org",
          "code" : "96780-2",
          "display" : "Wants help finding or keeping work or a job"
        }],
        "text" : "Do you want help finding or keeping work or a job?"
      },
      "subject" : {
        "reference" : "Patient/PatientExample"
      },
      "effectiveDateTime" : "2023-07-12T16:08:00.000Z",
      "issued" : "2023-07-12T16:08:00.000Z",
      "valueCodeableConcept" : {
        "coding" : [{
          "system" : "http://loinc.org",
          "code" : "LA31981-6",
          "display" : "Yes, help finding work"
        }]
      },
      "interpretation" : [{
        "coding" : [{
          "system" : "http://terminology.hl7.org/CodeSystem/v3-ObservationInterpretation",
          "code" : "POS",
          "display" : "Positive"
        }]
      }]
    }
  },
  {
    "resource" : {
      "resourceType" : "Observation",
      "id" : "ObservationResponseSocialConnection96781-0",
      "meta" : {
        "lastUpdated" : "2024-02-23T00:00:00Z",
        "profile" : ["http://shinny.org/StructureDefinition/shin-ny-observation-screening-response",
        "http://hl7.org/fhir/us/sdoh-clinicalcare/StructureDefinition/SDOHCC-ObservationScreeningResponse"]
      },
      "text" : {
        "status" : "generated",
        "div" : "<div xmlns=\"http://www.w3.org/1999/xhtml\"><a name=\"Observation_ObservationResponseSocialConnection96781-0\"> </a><p class=\"res-header-id\"><b>Generated Narrative: Observation ObservationResponseSocialConnection96781-0</b></p><a name=\"ObservationResponseSocialConnection96781-0\"> </a><a name=\"hcObservationResponseSocialConnection96781-0\"> </a><a name=\"ObservationResponseSocialConnection96781-0-en-US\"> </a><div style=\"display: inline-block; background-color: #d9e0e7; padding: 6px; margin: 4px; border: 1px solid #8da1b4; border-radius: 5px; line-height: 60%\"><p style=\"margin-bottom: 0px\">Last updated: 2024-02-23 00:00:00+0000</p><p style=\"margin-bottom: 0px\">Profiles: <a href=\"StructureDefinition-shin-ny-observation-screening-response.html\">SHINNY Observation Screening Response Profile</a>, <a href=\"http://hl7.org/fhir/us/sdoh-clinicalcare/STU2.1/StructureDefinition-SDOHCC-ObservationScreeningResponse.html\">SDOHCC Observation Screening Response</a></p></div><p><b>status</b>: Final</p><p><b>category</b>: <span title=\"Codes:{http://terminology.hl7.org/CodeSystem/observation-category social-history}\">Social History</span>, <span title=\"Codes:{http://terminology.hl7.org/CodeSystem/observation-category survey}\">Survey</span>, <span title=\"Codes:{http://hl7.org/fhir/us/sdoh-clinicalcare/CodeSystem/SDOHCC-CodeSystemTemporaryCodes social-connection}\">Social Connection</span>, <span title=\"Codes:{http://terminology.hl7.org/CodeSystem/observation-category social-history}\">Social History</span>, <span title=\"Codes:{http://terminology.hl7.org/CodeSystem/observation-category survey}\">Survey</span></p><p><b>code</b>: <span title=\"Codes:{http://loinc.org 96781-0}\">If for any reason you need help with day-to-day activities such as bathing, preparing meals, shopping, managing finances, etc., do you get the help you need?</span></p><p><b>subject</b>: <a href=\"Patient-PatientExample.html\">Jon Doe  Male, DoB: 1981-07-16 ( Medical record number)</a></p><p><b>effective</b>: 2023-07-12 16:08:00+0000</p><p><b>issued</b>: 2023-07-12 16:08:00+0000</p><p><b>value</b>: <span title=\"Codes:{http://loinc.org LA31976-6}\">I don't need any help</span></p></div>"
      },
      "status" : "final",
      "category" : [{
        "coding" : [{
          "system" : "http://terminology.hl7.org/CodeSystem/observation-category",
          "code" : "social-history",
          "display" : "Social History"
        }]
      },
      {
        "coding" : [{
          "system" : "http://terminology.hl7.org/CodeSystem/observation-category",
          "code" : "survey",
          "display" : "Survey"
        }]
      },
      {
        "coding" : [{
          "system" : "http://hl7.org/fhir/us/sdoh-clinicalcare/CodeSystem/SDOHCC-CodeSystemTemporaryCodes",
          "code" : "social-connection",
          "display" : "Social Connection"
        }]
      },
      {
        "coding" : [{
          "system" : "http://terminology.hl7.org/CodeSystem/observation-category",
          "code" : "social-history"
        }]
      },
      {
        "coding" : [{
          "system" : "http://terminology.hl7.org/CodeSystem/observation-category",
          "code" : "survey"
        }]
      }],
      "code" : {
        "coding" : [{
          "system" : "http://loinc.org",
          "code" : "96781-0",
          "display" : "Able to get help with daily activities when needed"
        }],
        "text" : "If for any reason you need help with day-to-day activities such as bathing, preparing meals, shopping, managing finances, etc., do you get the help you need?"
      },
      "subject" : {
        "reference" : "Patient/PatientExample"
      },
      "effectiveDateTime" : "2023-07-12T16:08:00.000Z",
      "issued" : "2023-07-12T16:08:00.000Z",
      "valueCodeableConcept" : {
        "coding" : [{
          "system" : "http://loinc.org",
          "code" : "LA31976-6",
          "display" : "I don't need any help"
        }]
      }
    }
  },
  {
    "resource" : {
      "resourceType" : "Observation",
      "id" : "ObservationResponseSocialHistory93159-2",
      "meta" : {
        "lastUpdated" : "2024-02-23T00:00:00Z",
        "profile" : ["http://shinny.org/StructureDefinition/shin-ny-observation-screening-response",
        "http://hl7.org/fhir/us/sdoh-clinicalcare/StructureDefinition/SDOHCC-ObservationScreeningResponse"]
      },
      "text" : {
        "status" : "generated",
        "div" : "<div xmlns=\"http://www.w3.org/1999/xhtml\"><a name=\"Observation_ObservationResponseSocialHistory93159-2\"> </a><p class=\"res-header-id\"><b>Generated Narrative: Observation ObservationResponseSocialHistory93159-2</b></p><a name=\"ObservationResponseSocialHistory93159-2\"> </a><a name=\"hcObservationResponseSocialHistory93159-2\"> </a><a name=\"ObservationResponseSocialHistory93159-2-en-US\"> </a><div style=\"display: inline-block; background-color: #d9e0e7; padding: 6px; margin: 4px; border: 1px solid #8da1b4; border-radius: 5px; line-height: 60%\"><p style=\"margin-bottom: 0px\">Last updated: 2024-02-23 00:00:00+0000</p><p style=\"margin-bottom: 0px\">Profiles: <a href=\"StructureDefinition-shin-ny-observation-screening-response.html\">SHINNY Observation Screening Response Profile</a>, <a href=\"http://hl7.org/fhir/us/sdoh-clinicalcare/STU2.1/StructureDefinition-SDOHCC-ObservationScreeningResponse.html\">SDOHCC Observation Screening Response</a></p></div><p><b>status</b>: Final</p><p><b>category</b>: <span title=\"Codes:{http://terminology.hl7.org/CodeSystem/observation-category social-history}\">Social History</span>, <span title=\"Codes:{http://terminology.hl7.org/CodeSystem/observation-category survey}\">Survey</span>, <span title=\"Codes:{http://hl7.org/fhir/us/sdoh-clinicalcare/CodeSystem/SDOHCC-CodeSystemTemporaryCodes social-connection}\">Social Connection</span>, <span title=\"Codes:{http://terminology.hl7.org/CodeSystem/observation-category social-history}\">Social History</span>, <span title=\"Codes:{http://terminology.hl7.org/CodeSystem/observation-category survey}\">Survey</span></p><p><b>code</b>: <span title=\"Codes:{http://loinc.org 93159-2}\">How often do you feel lonely or isolated from those around you?</span></p><p><b>subject</b>: <a href=\"Patient-PatientExample.html\">Jon Doe  Male, DoB: 1981-07-16 ( Medical record number)</a></p><p><b>effective</b>: 2023-07-12 16:08:00+0000</p><p><b>issued</b>: 2023-07-12 16:08:00+0000</p><p><b>value</b>: <span title=\"Codes:{http://loinc.org LA6270-8}\">Never</span></p></div>"
      },
      "status" : "final",
      "category" : [{
        "coding" : [{
          "system" : "http://terminology.hl7.org/CodeSystem/observation-category",
          "code" : "social-history",
          "display" : "Social History"
        }]
      },
      {
        "coding" : [{
          "system" : "http://terminology.hl7.org/CodeSystem/observation-category",
          "code" : "survey",
          "display" : "Survey"
        }]
      },
      {
        "coding" : [{
          "system" : "http://hl7.org/fhir/us/sdoh-clinicalcare/CodeSystem/SDOHCC-CodeSystemTemporaryCodes",
          "code" : "social-connection",
          "display" : "Social Connection"
        }]
      },
      {
        "coding" : [{
          "system" : "http://terminology.hl7.org/CodeSystem/observation-category",
          "code" : "social-history"
        }]
      },
      {
        "coding" : [{
          "system" : "http://terminology.hl7.org/CodeSystem/observation-category",
          "code" : "survey"
        }]
      }],
      "code" : {
        "coding" : [{
          "system" : "http://loinc.org",
          "code" : "93159-2",
          "display" : "How often do you feel lonely or isolated from those around you during assessment period [CMS Assessment]"
        }],
        "text" : "How often do you feel lonely or isolated from those around you?"
      },
      "subject" : {
        "reference" : "Patient/PatientExample"
      },
      "effectiveDateTime" : "2023-07-12T16:08:00.000Z",
      "issued" : "2023-07-12T16:08:00.000Z",
      "valueCodeableConcept" : {
        "coding" : [{
          "system" : "http://loinc.org",
          "code" : "LA6270-8",
          "display" : "Never"
        }]
      }
    }
  },
  {
    "resource" : {
      "resourceType" : "Observation",
      "id" : "ObservationResponseLanguageFinding97027-7",
      "meta" : {
        "lastUpdated" : "2024-02-23T00:00:00Z",
        "profile" : ["http://shinny.org/StructureDefinition/shin-ny-observation-screening-response",
        "http://hl7.org/fhir/us/sdoh-clinicalcare/StructureDefinition/SDOHCC-ObservationScreeningResponse"]
      },
      "text" : {
        "status" : "generated",
        "div" : "<div xmlns=\"http://www.w3.org/1999/xhtml\"><a name=\"Observation_ObservationResponseLanguageFinding97027-7\"> </a><p class=\"res-header-id\"><b>Generated Narrative: Observation ObservationResponseLanguageFinding97027-7</b></p><a name=\"ObservationResponseLanguageFinding97027-7\"> </a><a name=\"hcObservationResponseLanguageFinding97027-7\"> </a><a name=\"ObservationResponseLanguageFinding97027-7-en-US\"> </a><div style=\"display: inline-block; background-color: #d9e0e7; padding: 6px; margin: 4px; border: 1px solid #8da1b4; border-radius: 5px; line-height: 60%\"><p style=\"margin-bottom: 0px\">Last updated: 2024-02-23 00:00:00+0000</p><p style=\"margin-bottom: 0px\">Profiles: <a href=\"StructureDefinition-shin-ny-observation-screening-response.html\">SHINNY Observation Screening Response Profile</a>, <a href=\"http://hl7.org/fhir/us/sdoh-clinicalcare/STU2.1/StructureDefinition-SDOHCC-ObservationScreeningResponse.html\">SDOHCC Observation Screening Response</a></p></div><p><b>status</b>: Final</p><p><b>category</b>: <span title=\"Codes:{http://terminology.hl7.org/CodeSystem/observation-category social-history}\">Social History</span>, <span title=\"Codes:{http://terminology.hl7.org/CodeSystem/observation-category survey}\">Survey</span>, <span title=\"Codes:{http://snomed.info/sct 106133000}\">Language finding (finding)</span>, <span title=\"Codes:{http://terminology.hl7.org/CodeSystem/observation-category social-history}\">Social History</span>, <span title=\"Codes:{http://terminology.hl7.org/CodeSystem/observation-category survey}\">Survey</span></p><p><b>code</b>: <span title=\"Codes:{http://loinc.org 97027-7}\">Do you speak a language other than English at home?</span></p><p><b>subject</b>: <a href=\"Patient-PatientExample.html\">Jon Doe  Male, DoB: 1981-07-16 ( Medical record number)</a></p><p><b>effective</b>: 2023-07-12 16:08:00+0000</p><p><b>issued</b>: 2023-07-12 16:08:00+0000</p><p><b>value</b>: <span title=\"Codes:{http://loinc.org LA33-6}\">Yes</span></p></div>"
      },
      "status" : "final",
      "category" : [{
        "coding" : [{
          "system" : "http://terminology.hl7.org/CodeSystem/observation-category",
          "code" : "social-history",
          "display" : "Social History"
        }]
      },
      {
        "coding" : [{
          "system" : "http://terminology.hl7.org/CodeSystem/observation-category",
          "code" : "survey",
          "display" : "Survey"
        }]
      },
      {
        "coding" : [{
          "system" : "http://snomed.info/sct",
          "code" : "106133000",
          "display" : "Language finding (finding)"
        }]
      },
      {
        "coding" : [{
          "system" : "http://terminology.hl7.org/CodeSystem/observation-category",
          "code" : "social-history"
        }]
      },
      {
        "coding" : [{
          "system" : "http://terminology.hl7.org/CodeSystem/observation-category",
          "code" : "survey"
        }]
      }],
      "code" : {
        "coding" : [{
          "system" : "http://loinc.org",
          "code" : "97027-7",
          "display" : "Speaks a language other than English at home"
        }],
        "text" : "Do you speak a language other than English at home?"
      },
      "subject" : {
        "reference" : "Patient/PatientExample"
      },
      "effectiveDateTime" : "2023-07-12T16:08:00.000Z",
      "issued" : "2023-07-12T16:08:00.000Z",
      "valueCodeableConcept" : {
        "coding" : [{
          "system" : "http://loinc.org",
          "code" : "LA33-6",
          "display" : "Yes"
        }]
      }
    }
  },
  {
    "resource" : {
      "resourceType" : "Observation",
      "id" : "ObservationResponseEducation96782-8",
      "meta" : {
        "lastUpdated" : "2024-02-23T00:00:00Z",
        "profile" : ["http://shinny.org/StructureDefinition/shin-ny-observation-screening-response",
        "http://hl7.org/fhir/us/sdoh-clinicalcare/StructureDefinition/SDOHCC-ObservationScreeningResponse"]
      },
      "text" : {
        "status" : "generated",
        "div" : "<div xmlns=\"http://www.w3.org/1999/xhtml\"><a name=\"Observation_ObservationResponseEducation96782-8\"> </a><p class=\"res-header-id\"><b>Generated Narrative: Observation ObservationResponseEducation96782-8</b></p><a name=\"ObservationResponseEducation96782-8\"> </a><a name=\"hcObservationResponseEducation96782-8\"> </a><a name=\"ObservationResponseEducation96782-8-en-US\"> </a><div style=\"display: inline-block; background-color: #d9e0e7; padding: 6px; margin: 4px; border: 1px solid #8da1b4; border-radius: 5px; line-height: 60%\"><p style=\"margin-bottom: 0px\">Last updated: 2024-02-23 00:00:00+0000</p><p style=\"margin-bottom: 0px\">Profiles: <a href=\"StructureDefinition-shin-ny-observation-screening-response.html\">SHINNY Observation Screening Response Profile</a>, <a href=\"http://hl7.org/fhir/us/sdoh-clinicalcare/STU2.1/StructureDefinition-SDOHCC-ObservationScreeningResponse.html\">SDOHCC Observation Screening Response</a></p></div><p><b>status</b>: Final</p><p><b>category</b>: <span title=\"Codes:{http://terminology.hl7.org/CodeSystem/observation-category social-history}\">Social History</span>, <span title=\"Codes:{http://terminology.hl7.org/CodeSystem/observation-category survey}\">Survey</span>, <span title=\"Codes:{http://snomed.info/sct 365458002}\">Education and/or schooling finding</span>, <span title=\"Codes:{http://terminology.hl7.org/CodeSystem/observation-category social-history}\">Social History</span>, <span title=\"Codes:{http://terminology.hl7.org/CodeSystem/observation-category survey}\">Survey</span></p><p><b>code</b>: <span title=\"Codes:{http://loinc.org 96782-8}\">Do you want help with school or training? For example, starting or completing job training or getting a high school diploma, GED or equivalent.</span></p><p><b>subject</b>: <a href=\"Patient-PatientExample.html\">Jon Doe  Male, DoB: 1981-07-16 ( Medical record number)</a></p><p><b>effective</b>: 2023-07-12 16:08:00+0000</p><p><b>issued</b>: 2023-07-12 16:08:00+0000</p><p><b>value</b>: <span title=\"Codes:{http://loinc.org LA33-6}\">Yes</span></p><p><b>interpretation</b>: <span title=\"Codes:{http://terminology.hl7.org/CodeSystem/v3-ObservationInterpretation POS}\">Positive</span></p></div>"
      },
      "status" : "final",
      "category" : [{
        "coding" : [{
          "system" : "http://terminology.hl7.org/CodeSystem/observation-category",
          "code" : "social-history",
          "display" : "Social History"
        }]
      },
      {
        "coding" : [{
          "system" : "http://terminology.hl7.org/CodeSystem/observation-category",
          "code" : "survey",
          "display" : "Survey"
        }]
      },
      {
        "coding" : [{
          "system" : "http://snomed.info/sct",
          "code" : "365458002",
          "display" : "Education and/or schooling finding"
        }]
      },
      {
        "coding" : [{
          "system" : "http://terminology.hl7.org/CodeSystem/observation-category",
          "code" : "social-history"
        }]
      },
      {
        "coding" : [{
          "system" : "http://terminology.hl7.org/CodeSystem/observation-category",
          "code" : "survey"
        }]
      }],
      "code" : {
        "coding" : [{
          "system" : "http://loinc.org",
          "code" : "96782-8",
          "display" : "Wants help with school or training"
        }],
        "text" : "Do you want help with school or training? For example, starting or completing job training or getting a high school diploma, GED or equivalent."
      },
      "subject" : {
        "reference" : "Patient/PatientExample"
      },
      "effectiveDateTime" : "2023-07-12T16:08:00.000Z",
      "issued" : "2023-07-12T16:08:00.000Z",
      "valueCodeableConcept" : {
        "coding" : [{
          "system" : "http://loinc.org",
          "code" : "LA33-6",
          "display" : "Yes"
        }]
      },
      "interpretation" : [{
        "coding" : [{
          "system" : "http://terminology.hl7.org/CodeSystem/v3-ObservationInterpretation",
          "code" : "POS",
          "display" : "Positive"
        }]
      }]
    }
  },
  {
    "resource" : {
      "resourceType" : "Observation",
      "id" : "ObservationResponsePhysicalActivity89555-7",
      "meta" : {
        "lastUpdated" : "2024-02-23T00:00:00Z",
        "profile" : ["http://shinny.org/StructureDefinition/shin-ny-observation-screening-response",
        "http://hl7.org/fhir/us/sdoh-clinicalcare/StructureDefinition/SDOHCC-ObservationScreeningResponse"]
      },
      "text" : {
        "status" : "generated",
        "div" : "<div xmlns=\"http://www.w3.org/1999/xhtml\"><a name=\"Observation_ObservationResponsePhysicalActivity89555-7\"> </a><p class=\"res-header-id\"><b>Generated Narrative: Observation ObservationResponsePhysicalActivity89555-7</b></p><a name=\"ObservationResponsePhysicalActivity89555-7\"> </a><a name=\"hcObservationResponsePhysicalActivity89555-7\"> </a><a name=\"ObservationResponsePhysicalActivity89555-7-en-US\"> </a><div style=\"display: inline-block; background-color: #d9e0e7; padding: 6px; margin: 4px; border: 1px solid #8da1b4; border-radius: 5px; line-height: 60%\"><p style=\"margin-bottom: 0px\">Last updated: 2024-02-23 00:00:00+0000</p><p style=\"margin-bottom: 0px\">Profiles: <a href=\"StructureDefinition-shin-ny-observation-screening-response.html\">SHINNY Observation Screening Response Profile</a>, <a href=\"http://hl7.org/fhir/us/sdoh-clinicalcare/STU2.1/StructureDefinition-SDOHCC-ObservationScreeningResponse.html\">SDOHCC Observation Screening Response</a></p></div><p><b>status</b>: Final</p><p><b>category</b>: <span title=\"Codes:{http://terminology.hl7.org/CodeSystem/observation-category social-history}\">Social History</span>, <span title=\"Codes:{http://terminology.hl7.org/CodeSystem/observation-category survey}\">Survey</span>, <span title=\"Codes:{http://snomed.info/sct 129861002}\">Physical activity finding (finding)</span>, <span title=\"Codes:{http://terminology.hl7.org/CodeSystem/observation-category social-history}\">Social History</span>, <span title=\"Codes:{http://terminology.hl7.org/CodeSystem/observation-category survey}\">Survey</span></p><p><b>code</b>: <span title=\"Codes:{http://loinc.org 89555-7}\">In the last 30 days, other than the activities you did for work, on average, how many days per week did you engage in moderate exercise (like walking fast, running, jogging, dancing, swimming, biking, or other similar activities)?</span></p><p><b>subject</b>: <a href=\"Patient-PatientExample.html\">Jon Doe  Male, DoB: 1981-07-16 ( Medical record number)</a></p><p><b>effective</b>: 2023-07-12 16:08:00+0000</p><p><b>issued</b>: 2023-07-12 16:08:00+0000</p><p><b>value</b>: <span title=\"Codes:{http://loinc.org LA6114-8}\">3</span></p></div>"
      },
      "status" : "final",
      "category" : [{
        "coding" : [{
          "system" : "http://terminology.hl7.org/CodeSystem/observation-category",
          "code" : "social-history",
          "display" : "Social History"
        }]
      },
      {
        "coding" : [{
          "system" : "http://terminology.hl7.org/CodeSystem/observation-category",
          "code" : "survey",
          "display" : "Survey"
        }]
      },
      {
        "coding" : [{
          "system" : "http://snomed.info/sct",
          "code" : "129861002",
          "display" : "Physical activity finding (finding)"
        }]
      },
      {
        "coding" : [{
          "system" : "http://terminology.hl7.org/CodeSystem/observation-category",
          "code" : "social-history"
        }]
      },
      {
        "coding" : [{
          "system" : "http://terminology.hl7.org/CodeSystem/observation-category",
          "code" : "survey"
        }]
      }],
      "code" : {
        "coding" : [{
          "system" : "http://loinc.org",
          "code" : "89555-7",
          "display" : "How many days per week did you engage in moderate to strenuous physical activity in the last 30 days"
        }],
        "text" : "In the last 30 days, other than the activities you did for work, on average, how many days per week did you engage in moderate exercise (like walking fast, running, jogging, dancing, swimming, biking, or other similar activities)?"
      },
      "subject" : {
        "reference" : "Patient/PatientExample"
      },
      "effectiveDateTime" : "2023-07-12T16:08:00.000Z",
      "issued" : "2023-07-12T16:08:00.000Z",
      "valueCodeableConcept" : {
        "coding" : [{
          "system" : "http://loinc.org",
          "code" : "LA6114-8",
          "display" : "3"
        }]
      }
    }
  },
  {
    "resource" : {
      "resourceType" : "Observation",
      "id" : "ObservationResponsePhysicalActivity68516-4",
      "meta" : {
        "lastUpdated" : "2024-02-23T00:00:00Z",
        "profile" : ["http://shinny.org/StructureDefinition/shin-ny-observation-screening-response",
        "http://hl7.org/fhir/us/sdoh-clinicalcare/StructureDefinition/SDOHCC-ObservationScreeningResponse"]
      },
      "text" : {
        "status" : "generated",
        "div" : "<div xmlns=\"http://www.w3.org/1999/xhtml\"><a name=\"Observation_ObservationResponsePhysicalActivity68516-4\"> </a><p class=\"res-header-id\"><b>Generated Narrative: Observation ObservationResponsePhysicalActivity68516-4</b></p><a name=\"ObservationResponsePhysicalActivity68516-4\"> </a><a name=\"hcObservationResponsePhysicalActivity68516-4\"> </a><a name=\"ObservationResponsePhysicalActivity68516-4-en-US\"> </a><div style=\"display: inline-block; background-color: #d9e0e7; padding: 6px; margin: 4px; border: 1px solid #8da1b4; border-radius: 5px; line-height: 60%\"><p style=\"margin-bottom: 0px\">Last updated: 2024-02-23 00:00:00+0000</p><p style=\"margin-bottom: 0px\">Profiles: <a href=\"StructureDefinition-shin-ny-observation-screening-response.html\">SHINNY Observation Screening Response Profile</a>, <a href=\"http://hl7.org/fhir/us/sdoh-clinicalcare/STU2.1/StructureDefinition-SDOHCC-ObservationScreeningResponse.html\">SDOHCC Observation Screening Response</a></p></div><p><b>status</b>: Final</p><p><b>category</b>: <span title=\"Codes:{http://terminology.hl7.org/CodeSystem/observation-category social-history}\">Social History</span>, <span title=\"Codes:{http://terminology.hl7.org/CodeSystem/observation-category survey}\">Survey</span>, <span title=\"Codes:{http://snomed.info/sct 129861002}\">Physical activity finding (finding)</span>, <span title=\"Codes:{http://terminology.hl7.org/CodeSystem/observation-category social-history}\">Social History</span>, <span title=\"Codes:{http://terminology.hl7.org/CodeSystem/observation-category survey}\">Survey</span></p><p><b>code</b>: <span title=\"Codes:{http://loinc.org 68516-4}\">On average, how many minutes did you usually spend exercising at this level on one of those days?</span></p><p><b>subject</b>: <a href=\"Patient-PatientExample.html\">Jon Doe  Male, DoB: 1981-07-16 ( Medical record number)</a></p><p><b>effective</b>: 2023-07-12 16:08:00+0000</p><p><b>issued</b>: 2023-07-12 16:08:00+0000</p><p><b>value</b>: <span title=\"Codes:{http://loinc.org LA28858-1}\">40</span></p></div>"
      },
      "status" : "final",
      "category" : [{
        "coding" : [{
          "system" : "http://terminology.hl7.org/CodeSystem/observation-category",
          "code" : "social-history",
          "display" : "Social History"
        }]
      },
      {
        "coding" : [{
          "system" : "http://terminology.hl7.org/CodeSystem/observation-category",
          "code" : "survey",
          "display" : "Survey"
        }]
      },
      {
        "coding" : [{
          "system" : "http://snomed.info/sct",
          "code" : "129861002",
          "display" : "Physical activity finding (finding)"
        }]
      },
      {
        "coding" : [{
          "system" : "http://terminology.hl7.org/CodeSystem/observation-category",
          "code" : "social-history"
        }]
      },
      {
        "coding" : [{
          "system" : "http://terminology.hl7.org/CodeSystem/observation-category",
          "code" : "survey"
        }]
      }],
      "code" : {
        "coding" : [{
          "system" : "http://loinc.org",
          "code" : "68516-4",
          "display" : "On those days that you engage in moderate to strenuous exercise, how many minutes, on average, do you exercise"
        }],
        "text" : "On average, how many minutes did you usually spend exercising at this level on one of those days?"
      },
      "subject" : {
        "reference" : "Patient/PatientExample"
      },
      "effectiveDateTime" : "2023-07-12T16:08:00.000Z",
      "issued" : "2023-07-12T16:08:00.000Z",
      "valueCodeableConcept" : {
        "coding" : [{
          "system" : "http://loinc.org",
          "code" : "LA28858-1",
          "display" : "40"
        }]
      }
    }
  },
  {
    "resource" : {
      "resourceType" : "Observation",
      "id" : "ObservationResponsePhysicalActivityWeekly",
      "meta" : {
        "lastUpdated" : "2024-02-23T00:00:00Z",
        "profile" : ["http://shinny.org/StructureDefinition/shin-ny-observation-screening-response",
        "http://hl7.org/fhir/us/sdoh-clinicalcare/StructureDefinition/SDOHCC-ObservationScreeningResponse"]
      },
      "text" : {
        "status" : "generated",
        "div" : "<div xmlns=\"http://www.w3.org/1999/xhtml\"><a name=\"Observation_ObservationResponsePhysicalActivityWeekly\"> </a><p class=\"res-header-id\"><b>Generated Narrative: Observation ObservationResponsePhysicalActivityWeekly</b></p><a name=\"ObservationResponsePhysicalActivityWeekly\"> </a><a name=\"hcObservationResponsePhysicalActivityWeekly\"> </a><a name=\"ObservationResponsePhysicalActivityWeekly-en-US\"> </a><div style=\"display: inline-block; background-color: #d9e0e7; padding: 6px; margin: 4px; border: 1px solid #8da1b4; border-radius: 5px; line-height: 60%\"><p style=\"margin-bottom: 0px\">Last updated: 2024-02-23 00:00:00+0000</p><p style=\"margin-bottom: 0px\">Profiles: <a href=\"StructureDefinition-shin-ny-observation-screening-response.html\">SHINNY Observation Screening Response Profile</a>, <a href=\"http://hl7.org/fhir/us/sdoh-clinicalcare/STU2.1/StructureDefinition-SDOHCC-ObservationScreeningResponse.html\">SDOHCC Observation Screening Response</a></p></div><p><b>status</b>: Final</p><p><b>category</b>: <span title=\"Codes:{http://terminology.hl7.org/CodeSystem/observation-category social-history}\">Social History</span>, <span title=\"Codes:{http://terminology.hl7.org/CodeSystem/observation-category survey}\">Survey</span>, <span title=\"Codes:{http://snomed.info/sct 129861002}\">Physical activity finding (finding)</span>, <span title=\"Codes:{http://terminology.hl7.org/CodeSystem/observation-category social-history}\">Social History</span>, <span title=\"Codes:{http://terminology.hl7.org/CodeSystem/observation-category survey}\">Survey</span></p><p><b>code</b>: <span title=\"Codes:\">Calculated weekly physical activity</span></p><p><b>subject</b>: <a href=\"Patient-PatientExample.html\">Jon Doe  Male, DoB: 1981-07-16 ( Medical record number)</a></p><p><b>effective</b>: 2023-07-12 16:08:00+0000</p><p><b>issued</b>: 2023-07-12 16:08:00+0000</p><p><b>value</b>: 120 minutes per week</p><p><b>derivedFrom</b>: </p><ul><li><a href=\"Observation-ObservationResponsePhysicalActivity89555-7.html\">Observation How many days per week did you engage in moderate to strenuous physical activity in the last 30 days</a></li><li><a href=\"Observation-ObservationResponsePhysicalActivity68516-4.html\">Observation On those days that you engage in moderate to strenuous exercise, how many minutes, on average, do you exercise</a></li></ul></div>"
      },
      "status" : "final",
      "category" : [{
        "coding" : [{
          "system" : "http://terminology.hl7.org/CodeSystem/observation-category",
          "code" : "social-history",
          "display" : "Social History"
        }]
      },
      {
        "coding" : [{
          "system" : "http://terminology.hl7.org/CodeSystem/observation-category",
          "code" : "survey",
          "display" : "Survey"
        }]
      },
      {
        "coding" : [{
          "system" : "http://snomed.info/sct",
          "code" : "129861002",
          "display" : "Physical activity finding (finding)"
        }]
      },
      {
        "coding" : [{
          "system" : "http://terminology.hl7.org/CodeSystem/observation-category",
          "code" : "social-history"
        }]
      },
      {
        "coding" : [{
          "system" : "http://terminology.hl7.org/CodeSystem/observation-category",
          "code" : "survey"
        }]
      }],
      "code" : {
        "coding" : [{
          "display" : "Calculated weekly physical activity"
        }]
      },
      "subject" : {
        "reference" : "Patient/PatientExample"
      },
      "effectiveDateTime" : "2023-07-12T16:08:00.000Z",
      "issued" : "2023-07-12T16:08:00.000Z",
      "valueQuantity" : {
        "value" : 120,
        "unit" : "minutes per week",
        "system" : "http://unitsofmeasure.org"
      },
      "derivedFrom" : [{
        "reference" : "Observation/ObservationResponsePhysicalActivity89555-7"
      },
      {
        "reference" : "Observation/ObservationResponsePhysicalActivity68516-4"
      }]
    }
  },
  {
    "resource" : {
      "resourceType" : "Observation",
      "id" : "ObservationResponseAlcoholUse68517-2",
      "meta" : {
        "lastUpdated" : "2024-02-23T00:00:00Z",
        "profile" : ["http://shinny.org/StructureDefinition/shin-ny-observation-screening-response",
        "http://hl7.org/fhir/us/sdoh-clinicalcare/StructureDefinition/SDOHCC-ObservationScreeningResponse"]
      },
      "text" : {
        "status" : "generated",
        "div" : "<div xmlns=\"http://www.w3.org/1999/xhtml\"><a name=\"Observation_ObservationResponseAlcoholUse68517-2\"> </a><p class=\"res-header-id\"><b>Generated Narrative: Observation ObservationResponseAlcoholUse68517-2</b></p><a name=\"ObservationResponseAlcoholUse68517-2\"> </a><a name=\"hcObservationResponseAlcoholUse68517-2\"> </a><a name=\"ObservationResponseAlcoholUse68517-2-en-US\"> </a><div style=\"display: inline-block; background-color: #d9e0e7; padding: 6px; margin: 4px; border: 1px solid #8da1b4; border-radius: 5px; line-height: 60%\"><p style=\"margin-bottom: 0px\">Last updated: 2024-02-23 00:00:00+0000</p><p style=\"margin-bottom: 0px\">Profiles: <a href=\"StructureDefinition-shin-ny-observation-screening-response.html\">SHINNY Observation Screening Response Profile</a>, <a href=\"http://hl7.org/fhir/us/sdoh-clinicalcare/STU2.1/StructureDefinition-SDOHCC-ObservationScreeningResponse.html\">SDOHCC Observation Screening Response</a></p></div><p><b>status</b>: Final</p><p><b>category</b>: <span title=\"Codes:{http://terminology.hl7.org/CodeSystem/observation-category social-history}\">Social History</span>, <span title=\"Codes:{http://terminology.hl7.org/CodeSystem/observation-category survey}\">Survey</span>, <span title=\"Codes:{http://snomed.info/sct 228273003}\">Finding relating to alcohol drinking behavior (finding)</span>, <span title=\"Codes:{http://terminology.hl7.org/CodeSystem/observation-category social-history}\">Social History</span>, <span title=\"Codes:{http://terminology.hl7.org/CodeSystem/observation-category survey}\">Survey</span></p><p><b>code</b>: <span title=\"Codes:{http://loinc.org 68517-2}\">How many times in the past 12 months have you had 5 or more drinks in a day (males) or 4 or more drinks in a day (females)?</span></p><p><b>subject</b>: <a href=\"Patient-PatientExample.html\">Jon Doe  Male, DoB: 1981-07-16 ( Medical record number)</a></p><p><b>effective</b>: 2023-07-12 16:08:00+0000</p><p><b>issued</b>: 2023-07-12 16:08:00+0000</p><p><b>value</b>: <span title=\"Codes:{http://loinc.org LA26460-8}\">Once or twice</span></p></div>"
      },
      "status" : "final",
      "category" : [{
        "coding" : [{
          "system" : "http://terminology.hl7.org/CodeSystem/observation-category",
          "code" : "social-history",
          "display" : "Social History"
        }]
      },
      {
        "coding" : [{
          "system" : "http://terminology.hl7.org/CodeSystem/observation-category",
          "code" : "survey",
          "display" : "Survey"
        }]
      },
      {
        "coding" : [{
          "system" : "http://snomed.info/sct",
          "code" : "228273003",
          "display" : "Finding relating to alcohol drinking behavior (finding)"
        }]
      },
      {
        "coding" : [{
          "system" : "http://terminology.hl7.org/CodeSystem/observation-category",
          "code" : "social-history"
        }]
      },
      {
        "coding" : [{
          "system" : "http://terminology.hl7.org/CodeSystem/observation-category",
          "code" : "survey"
        }]
      }],
      "code" : {
        "coding" : [{
          "system" : "http://loinc.org",
          "code" : "68517-2",
          "display" : "How many times in the past year have you have X or more drinks in a day"
        }],
        "text" : "How many times in the past 12 months have you had 5 or more drinks in a day (males) or 4 or more drinks in a day (females)?"
      },
      "subject" : {
        "reference" : "Patient/PatientExample"
      },
      "effectiveDateTime" : "2023-07-12T16:08:00.000Z",
      "issued" : "2023-07-12T16:08:00.000Z",
      "valueCodeableConcept" : {
        "coding" : [{
          "system" : "http://loinc.org",
          "code" : "LA26460-8",
          "display" : "Once or twice"
        }]
      }
    }
  },
  {
    "resource" : {
      "resourceType" : "Observation",
      "id" : "ObservationResponseTobaccoUse96842-0",
      "meta" : {
        "lastUpdated" : "2024-02-23T00:00:00Z",
        "profile" : ["http://shinny.org/StructureDefinition/shin-ny-observation-screening-response",
        "http://hl7.org/fhir/us/sdoh-clinicalcare/StructureDefinition/SDOHCC-ObservationScreeningResponse"]
      },
      "text" : {
        "status" : "generated",
        "div" : "<div xmlns=\"http://www.w3.org/1999/xhtml\"><a name=\"Observation_ObservationResponseTobaccoUse96842-0\"> </a><p class=\"res-header-id\"><b>Generated Narrative: Observation ObservationResponseTobaccoUse96842-0</b></p><a name=\"ObservationResponseTobaccoUse96842-0\"> </a><a name=\"hcObservationResponseTobaccoUse96842-0\"> </a><a name=\"ObservationResponseTobaccoUse96842-0-en-US\"> </a><div style=\"display: inline-block; background-color: #d9e0e7; padding: 6px; margin: 4px; border: 1px solid #8da1b4; border-radius: 5px; line-height: 60%\"><p style=\"margin-bottom: 0px\">Last updated: 2024-02-23 00:00:00+0000</p><p style=\"margin-bottom: 0px\">Profiles: <a href=\"StructureDefinition-shin-ny-observation-screening-response.html\">SHINNY Observation Screening Response Profile</a>, <a href=\"http://hl7.org/fhir/us/sdoh-clinicalcare/STU2.1/StructureDefinition-SDOHCC-ObservationScreeningResponse.html\">SDOHCC Observation Screening Response</a></p></div><p><b>status</b>: Final</p><p><b>category</b>: <span title=\"Codes:{http://terminology.hl7.org/CodeSystem/observation-category social-history}\">Social History</span>, <span title=\"Codes:{http://terminology.hl7.org/CodeSystem/observation-category survey}\">Survey</span>, <span title=\"Codes:{http://snomed.info/sct 65980008}\">Finding of tobacco use and exposure (finding)</span>, <span title=\"Codes:{http://terminology.hl7.org/CodeSystem/observation-category social-history}\">Social History</span>, <span title=\"Codes:{http://terminology.hl7.org/CodeSystem/observation-category survey}\">Survey</span></p><p><b>code</b>: <span title=\"Codes:{http://loinc.org 96842-0}\">How often have you used any tobacco product in past 12 months?</span></p><p><b>subject</b>: <a href=\"Patient-PatientExample.html\">Jon Doe  Male, DoB: 1981-07-16 ( Medical record number)</a></p><p><b>effective</b>: 2023-07-12 16:08:00+0000</p><p><b>issued</b>: 2023-07-12 16:08:00+0000</p><p><b>value</b>: <span title=\"Codes:{http://loinc.org LA26460-8}\">Once or twice</span></p></div>"
      },
      "status" : "final",
      "category" : [{
        "coding" : [{
          "system" : "http://terminology.hl7.org/CodeSystem/observation-category",
          "code" : "social-history",
          "display" : "Social History"
        }]
      },
      {
        "coding" : [{
          "system" : "http://terminology.hl7.org/CodeSystem/observation-category",
          "code" : "survey",
          "display" : "Survey"
        }]
      },
      {
        "coding" : [{
          "system" : "http://snomed.info/sct",
          "code" : "65980008",
          "display" : "Finding of tobacco use and exposure (finding)"
        }]
      },
      {
        "coding" : [{
          "system" : "http://terminology.hl7.org/CodeSystem/observation-category",
          "code" : "social-history"
        }]
      },
      {
        "coding" : [{
          "system" : "http://terminology.hl7.org/CodeSystem/observation-category",
          "code" : "survey"
        }]
      }],
      "code" : {
        "coding" : [{
          "system" : "http://loinc.org",
          "code" : "96842-0",
          "display" : "How often have you used any tobacco product in past 12 months"
        }],
        "text" : "How often have you used any tobacco product in past 12 months?"
      },
      "subject" : {
        "reference" : "Patient/PatientExample"
      },
      "effectiveDateTime" : "2023-07-12T16:08:00.000Z",
      "issued" : "2023-07-12T16:08:00.000Z",
      "valueCodeableConcept" : {
        "coding" : [{
          "system" : "http://loinc.org",
          "code" : "LA26460-8",
          "display" : "Once or twice"
        }]
      }
    }
  },
  {
    "resource" : {
      "resourceType" : "Observation",
      "id" : "ObservationResponseSubstanceUse95530-2",
      "meta" : {
        "lastUpdated" : "2024-02-23T00:00:00Z",
        "profile" : ["http://shinny.org/StructureDefinition/shin-ny-observation-screening-response",
        "http://hl7.org/fhir/us/sdoh-clinicalcare/StructureDefinition/SDOHCC-ObservationScreeningResponse"]
      },
      "text" : {
        "status" : "generated",
        "div" : "<div xmlns=\"http://www.w3.org/1999/xhtml\"><a name=\"Observation_ObservationResponseSubstanceUse95530-2\"> </a><p class=\"res-header-id\"><b>Generated Narrative: Observation ObservationResponseSubstanceUse95530-2</b></p><a name=\"ObservationResponseSubstanceUse95530-2\"> </a><a name=\"hcObservationResponseSubstanceUse95530-2\"> </a><a name=\"ObservationResponseSubstanceUse95530-2-en-US\"> </a><div style=\"display: inline-block; background-color: #d9e0e7; padding: 6px; margin: 4px; border: 1px solid #8da1b4; border-radius: 5px; line-height: 60%\"><p style=\"margin-bottom: 0px\">Last updated: 2024-02-23 00:00:00+0000</p><p style=\"margin-bottom: 0px\">Profiles: <a href=\"StructureDefinition-shin-ny-observation-screening-response.html\">SHINNY Observation Screening Response Profile</a>, <a href=\"http://hl7.org/fhir/us/sdoh-clinicalcare/STU2.1/StructureDefinition-SDOHCC-ObservationScreeningResponse.html\">SDOHCC Observation Screening Response</a></p></div><p><b>status</b>: Final</p><p><b>category</b>: <span title=\"Codes:{http://terminology.hl7.org/CodeSystem/observation-category social-history}\">Social History</span>, <span title=\"Codes:{http://terminology.hl7.org/CodeSystem/observation-category survey}\">Survey</span>, <span title=\"Codes:{http://snomed.info/sct 409069009}\">Finding related to substance use (finding)</span>, <span title=\"Codes:{http://terminology.hl7.org/CodeSystem/observation-category social-history}\">Social History</span>, <span title=\"Codes:{http://terminology.hl7.org/CodeSystem/observation-category survey}\">Survey</span></p><p><b>code</b>: <span title=\"Codes:{http://loinc.org 95530-2}\">How many times in the past year have you used prescription drugs for non-medical reasons?</span></p><p><b>subject</b>: <a href=\"Patient-PatientExample.html\">Jon Doe  Male, DoB: 1981-07-16 ( Medical record number)</a></p><p><b>effective</b>: 2023-07-12 16:08:00+0000</p><p><b>issued</b>: 2023-07-12 16:08:00+0000</p><p><b>value</b>: <span title=\"Codes:{http://loinc.org LA26460-8}\">Once or twice</span></p></div>"
      },
      "status" : "final",
      "category" : [{
        "coding" : [{
          "system" : "http://terminology.hl7.org/CodeSystem/observation-category",
          "code" : "social-history",
          "display" : "Social History"
        }]
      },
      {
        "coding" : [{
          "system" : "http://terminology.hl7.org/CodeSystem/observation-category",
          "code" : "survey",
          "display" : "Survey"
        }]
      },
      {
        "coding" : [{
          "system" : "http://snomed.info/sct",
          "code" : "409069009",
          "display" : "Finding related to substance use (finding)"
        }]
      },
      {
        "coding" : [{
          "system" : "http://terminology.hl7.org/CodeSystem/observation-category",
          "code" : "social-history"
        }]
      },
      {
        "coding" : [{
          "system" : "http://terminology.hl7.org/CodeSystem/observation-category",
          "code" : "survey"
        }]
      }],
      "code" : {
        "coding" : [{
          "system" : "http://loinc.org",
          "code" : "95530-2",
          "display" : "Prescription drug use for non-medical reasons in the past year"
        }],
        "text" : "How many times in the past year have you used prescription drugs for non-medical reasons?"
      },
      "subject" : {
        "reference" : "Patient/PatientExample"
      },
      "effectiveDateTime" : "2023-07-12T16:08:00.000Z",
      "issued" : "2023-07-12T16:08:00.000Z",
      "valueCodeableConcept" : {
        "coding" : [{
          "system" : "http://loinc.org",
          "code" : "LA26460-8",
          "display" : "Once or twice"
        }]
      }
    }
  },
  {
    "resource" : {
      "resourceType" : "Observation",
      "id" : "ObservationResponseDrugUse68524-8",
      "meta" : {
        "lastUpdated" : "2024-02-23T00:00:00Z",
        "profile" : ["http://shinny.org/StructureDefinition/shin-ny-observation-screening-response",
        "http://hl7.org/fhir/us/sdoh-clinicalcare/StructureDefinition/SDOHCC-ObservationScreeningResponse"]
      },
      "text" : {
        "status" : "generated",
        "div" : "<div xmlns=\"http://www.w3.org/1999/xhtml\"><a name=\"Observation_ObservationResponseDrugUse68524-8\"> </a><p class=\"res-header-id\"><b>Generated Narrative: Observation ObservationResponseDrugUse68524-8</b></p><a name=\"ObservationResponseDrugUse68524-8\"> </a><a name=\"hcObservationResponseDrugUse68524-8\"> </a><a name=\"ObservationResponseDrugUse68524-8-en-US\"> </a><div style=\"display: inline-block; background-color: #d9e0e7; padding: 6px; margin: 4px; border: 1px solid #8da1b4; border-radius: 5px; line-height: 60%\"><p style=\"margin-bottom: 0px\">Last updated: 2024-02-23 00:00:00+0000</p><p style=\"margin-bottom: 0px\">Profiles: <a href=\"StructureDefinition-shin-ny-observation-screening-response.html\">SHINNY Observation Screening Response Profile</a>, <a href=\"http://hl7.org/fhir/us/sdoh-clinicalcare/STU2.1/StructureDefinition-SDOHCC-ObservationScreeningResponse.html\">SDOHCC Observation Screening Response</a></p></div><p><b>status</b>: Final</p><p><b>category</b>: <span title=\"Codes:{http://terminology.hl7.org/CodeSystem/observation-category social-history}\">Social History</span>, <span title=\"Codes:{http://terminology.hl7.org/CodeSystem/observation-category survey}\">Survey</span>, <span title=\"Codes:{http://snomed.info/sct 228366006}\">Finding relating to drug misuse behavior (finding)</span>, <span title=\"Codes:{http://terminology.hl7.org/CodeSystem/observation-category social-history}\">Social History</span>, <span title=\"Codes:{http://terminology.hl7.org/CodeSystem/observation-category survey}\">Survey</span></p><p><b>code</b>: <span title=\"Codes:{http://loinc.org 68524-8}\">How many times in the past year have you used illegal drugs?</span></p><p><b>subject</b>: <a href=\"Patient-PatientExample.html\">Jon Doe  Male, DoB: 1981-07-16 ( Medical record number)</a></p><p><b>effective</b>: 2023-07-12 16:08:00+0000</p><p><b>issued</b>: 2023-07-12 16:08:00+0000</p><p><b>value</b>: <span title=\"Codes:{http://loinc.org LA26460-8}\">Once or twice</span></p></div>"
      },
      "status" : "final",
      "category" : [{
        "coding" : [{
          "system" : "http://terminology.hl7.org/CodeSystem/observation-category",
          "code" : "social-history",
          "display" : "Social History"
        }]
      },
      {
        "coding" : [{
          "system" : "http://terminology.hl7.org/CodeSystem/observation-category",
          "code" : "survey",
          "display" : "Survey"
        }]
      },
      {
        "coding" : [{
          "system" : "http://snomed.info/sct",
          "code" : "228366006",
          "display" : "Finding relating to drug misuse behavior (finding)"
        }]
      },
      {
        "coding" : [{
          "system" : "http://terminology.hl7.org/CodeSystem/observation-category",
          "code" : "social-history"
        }]
      },
      {
        "coding" : [{
          "system" : "http://terminology.hl7.org/CodeSystem/observation-category",
          "code" : "survey"
        }]
      }],
      "code" : {
        "coding" : [{
          "system" : "http://loinc.org",
          "code" : "68524-8",
          "display" : "How many times in the past year have you used an illegal drug or used a prescription medication for non-medical reasons"
        }],
        "text" : "How many times in the past year have you used illegal drugs?"
      },
      "subject" : {
        "reference" : "Patient/PatientExample"
      },
      "effectiveDateTime" : "2023-07-12T16:08:00.000Z",
      "issued" : "2023-07-12T16:08:00.000Z",
      "valueCodeableConcept" : {
        "coding" : [{
          "system" : "http://loinc.org",
          "code" : "LA26460-8",
          "display" : "Once or twice"
        }]
      }
    }
  },
  {
    "resource" : {
      "resourceType" : "Observation",
      "id" : "ObservationResponseMentalState44250-9",
      "meta" : {
        "lastUpdated" : "2024-02-23T00:00:00Z",
        "profile" : ["http://shinny.org/StructureDefinition/shin-ny-observation-screening-response",
        "http://hl7.org/fhir/us/sdoh-clinicalcare/StructureDefinition/SDOHCC-ObservationScreeningResponse"]
      },
      "text" : {
        "status" : "generated",
        "div" : "<div xmlns=\"http://www.w3.org/1999/xhtml\"><a name=\"Observation_ObservationResponseMentalState44250-9\"> </a><p class=\"res-header-id\"><b>Generated Narrative: Observation ObservationResponseMentalState44250-9</b></p><a name=\"ObservationResponseMentalState44250-9\"> </a><a name=\"hcObservationResponseMentalState44250-9\"> </a><a name=\"ObservationResponseMentalState44250-9-en-US\"> </a><div style=\"display: inline-block; background-color: #d9e0e7; padding: 6px; margin: 4px; border: 1px solid #8da1b4; border-radius: 5px; line-height: 60%\"><p style=\"margin-bottom: 0px\">Last updated: 2024-02-23 00:00:00+0000</p><p style=\"margin-bottom: 0px\">Profiles: <a href=\"StructureDefinition-shin-ny-observation-screening-response.html\">SHINNY Observation Screening Response Profile</a>, <a href=\"http://hl7.org/fhir/us/sdoh-clinicalcare/STU2.1/StructureDefinition-SDOHCC-ObservationScreeningResponse.html\">SDOHCC Observation Screening Response</a></p></div><p><b>status</b>: Final</p><p><b>category</b>: <span title=\"Codes:{http://terminology.hl7.org/CodeSystem/observation-category social-history}\">Social History</span>, <span title=\"Codes:{http://terminology.hl7.org/CodeSystem/observation-category survey}\">Survey</span>, <span title=\"Codes:{http://snomed.info/sct 36456004}\">Mental state finding (finding)</span>, <span title=\"Codes:{http://terminology.hl7.org/CodeSystem/observation-category social-history}\">Social History</span>, <span title=\"Codes:{http://terminology.hl7.org/CodeSystem/observation-category survey}\">Survey</span></p><p><b>code</b>: <span title=\"Codes:{http://loinc.org 44250-9}\">Little interest or pleasure in doing things?</span></p><p><b>subject</b>: <a href=\"Patient-PatientExample.html\">Jon Doe  Male, DoB: 1981-07-16 ( Medical record number)</a></p><p><b>effective</b>: 2023-07-12 16:08:00+0000</p><p><b>issued</b>: 2023-07-12 16:08:00+0000</p><p><b>value</b>: <span title=\"Codes:{http://loinc.org LA6568-5}\">Not at all</span></p></div>"
      },
      "status" : "final",
      "category" : [{
        "coding" : [{
          "system" : "http://terminology.hl7.org/CodeSystem/observation-category",
          "code" : "social-history",
          "display" : "Social History"
        }]
      },
      {
        "coding" : [{
          "system" : "http://terminology.hl7.org/CodeSystem/observation-category",
          "code" : "survey",
          "display" : "Survey"
        }]
      },
      {
        "coding" : [{
          "system" : "http://snomed.info/sct",
          "code" : "36456004",
          "display" : "Mental state finding (finding)"
        }]
      },
      {
        "coding" : [{
          "system" : "http://terminology.hl7.org/CodeSystem/observation-category",
          "code" : "social-history"
        }]
      },
      {
        "coding" : [{
          "system" : "http://terminology.hl7.org/CodeSystem/observation-category",
          "code" : "survey"
        }]
      }],
      "code" : {
        "coding" : [{
          "system" : "http://loinc.org",
          "code" : "44250-9",
          "display" : "Little interest or pleasure in doing things in last 2 weeks"
        }],
        "text" : "Little interest or pleasure in doing things?"
      },
      "subject" : {
        "reference" : "Patient/PatientExample"
      },
      "effectiveDateTime" : "2023-07-12T16:08:00.000Z",
      "issued" : "2023-07-12T16:08:00.000Z",
      "valueCodeableConcept" : {
        "coding" : [{
          "system" : "http://loinc.org",
          "code" : "LA6568-5",
          "display" : "Not at all"
        }]
      }
    }
  },
  {
    "resource" : {
      "resourceType" : "Observation",
      "id" : "ObservationResponseMentalState44255-8",
      "meta" : {
        "lastUpdated" : "2024-02-23T00:00:00Z",
        "profile" : ["http://shinny.org/StructureDefinition/shin-ny-observation-screening-response",
        "http://hl7.org/fhir/us/sdoh-clinicalcare/StructureDefinition/SDOHCC-ObservationScreeningResponse"]
      },
      "text" : {
        "status" : "generated",
        "div" : "<div xmlns=\"http://www.w3.org/1999/xhtml\"><a name=\"Observation_ObservationResponseMentalState44255-8\"> </a><p class=\"res-header-id\"><b>Generated Narrative: Observation ObservationResponseMentalState44255-8</b></p><a name=\"ObservationResponseMentalState44255-8\"> </a><a name=\"hcObservationResponseMentalState44255-8\"> </a><a name=\"ObservationResponseMentalState44255-8-en-US\"> </a><div style=\"display: inline-block; background-color: #d9e0e7; padding: 6px; margin: 4px; border: 1px solid #8da1b4; border-radius: 5px; line-height: 60%\"><p style=\"margin-bottom: 0px\">Last updated: 2024-02-23 00:00:00+0000</p><p style=\"margin-bottom: 0px\">Profiles: <a href=\"StructureDefinition-shin-ny-observation-screening-response.html\">SHINNY Observation Screening Response Profile</a>, <a href=\"http://hl7.org/fhir/us/sdoh-clinicalcare/STU2.1/StructureDefinition-SDOHCC-ObservationScreeningResponse.html\">SDOHCC Observation Screening Response</a></p></div><p><b>status</b>: Final</p><p><b>category</b>: <span title=\"Codes:{http://terminology.hl7.org/CodeSystem/observation-category social-history}\">Social History</span>, <span title=\"Codes:{http://terminology.hl7.org/CodeSystem/observation-category survey}\">Survey</span>, <span title=\"Codes:{http://snomed.info/sct 36456004}\">Mental state finding (finding)</span>, <span title=\"Codes:{http://terminology.hl7.org/CodeSystem/observation-category social-history}\">Social History</span>, <span title=\"Codes:{http://terminology.hl7.org/CodeSystem/observation-category survey}\">Survey</span></p><p><b>code</b>: <span title=\"Codes:{http://loinc.org 44255-8}\">Feeling down, depressed, or hopeless?</span></p><p><b>subject</b>: <a href=\"Patient-PatientExample.html\">Jon Doe  Male, DoB: 1981-07-16 ( Medical record number)</a></p><p><b>effective</b>: 2023-07-12 16:08:00+0000</p><p><b>issued</b>: 2023-07-12 16:08:00+0000</p><p><b>value</b>: <span title=\"Codes:{http://loinc.org LA6568-5}\">Not at all</span></p></div>"
      },
      "status" : "final",
      "category" : [{
        "coding" : [{
          "system" : "http://terminology.hl7.org/CodeSystem/observation-category",
          "code" : "social-history",
          "display" : "Social History"
        }]
      },
      {
        "coding" : [{
          "system" : "http://terminology.hl7.org/CodeSystem/observation-category",
          "code" : "survey",
          "display" : "Survey"
        }]
      },
      {
        "coding" : [{
          "system" : "http://snomed.info/sct",
          "code" : "36456004",
          "display" : "Mental state finding (finding)"
        }]
      },
      {
        "coding" : [{
          "system" : "http://terminology.hl7.org/CodeSystem/observation-category",
          "code" : "social-history"
        }]
      },
      {
        "coding" : [{
          "system" : "http://terminology.hl7.org/CodeSystem/observation-category",
          "code" : "survey"
        }]
      }],
      "code" : {
        "coding" : [{
          "system" : "http://loinc.org",
          "code" : "44255-8",
          "display" : "Feeling down, depressed, or hopeless in last 2 weeks"
        }],
        "text" : "Feeling down, depressed, or hopeless?"
      },
      "subject" : {
        "reference" : "Patient/PatientExample"
      },
      "effectiveDateTime" : "2023-07-12T16:08:00.000Z",
      "issued" : "2023-07-12T16:08:00.000Z",
      "valueCodeableConcept" : {
        "coding" : [{
          "system" : "http://loinc.org",
          "code" : "LA6568-5",
          "display" : "Not at all"
        }]
      }
    }
  },
  {
    "resource" : {
      "resourceType" : "Observation",
      "id" : "ObservationResponseMentalStateScore",
      "meta" : {
        "lastUpdated" : "2024-02-23T00:00:00Z",
        "profile" : ["http://shinny.org/StructureDefinition/shin-ny-observation-screening-response",
        "http://hl7.org/fhir/us/sdoh-clinicalcare/StructureDefinition/SDOHCC-ObservationScreeningResponse"]
      },
      "text" : {
        "status" : "generated",
        "div" : "<div xmlns=\"http://www.w3.org/1999/xhtml\"><a name=\"Observation_ObservationResponseMentalStateScore\"> </a><p class=\"res-header-id\"><b>Generated Narrative: Observation ObservationResponseMentalStateScore</b></p><a name=\"ObservationResponseMentalStateScore\"> </a><a name=\"hcObservationResponseMentalStateScore\"> </a><a name=\"ObservationResponseMentalStateScore-en-US\"> </a><div style=\"display: inline-block; background-color: #d9e0e7; padding: 6px; margin: 4px; border: 1px solid #8da1b4; border-radius: 5px; line-height: 60%\"><p style=\"margin-bottom: 0px\">Last updated: 2024-02-23 00:00:00+0000</p><p style=\"margin-bottom: 0px\">Profiles: <a href=\"StructureDefinition-shin-ny-observation-screening-response.html\">SHINNY Observation Screening Response Profile</a>, <a href=\"http://hl7.org/fhir/us/sdoh-clinicalcare/STU2.1/StructureDefinition-SDOHCC-ObservationScreeningResponse.html\">SDOHCC Observation Screening Response</a></p></div><p><b>status</b>: Final</p><p><b>category</b>: <span title=\"Codes:{http://terminology.hl7.org/CodeSystem/observation-category social-history}\">Social History</span>, <span title=\"Codes:{http://terminology.hl7.org/CodeSystem/observation-category survey}\">Survey</span>, <span title=\"Codes:{http://snomed.info/sct 36456004}\">Mental state finding (finding)</span>, <span title=\"Codes:{http://terminology.hl7.org/CodeSystem/observation-category social-history}\">Social History</span>, <span title=\"Codes:{http://terminology.hl7.org/CodeSystem/observation-category survey}\">Survey</span></p><p><b>code</b>: <span title=\"Codes:\">Calculated mental health score</span></p><p><b>subject</b>: <a href=\"Patient-PatientExample.html\">Jon Doe  Male, DoB: 1981-07-16 ( Medical record number)</a></p><p><b>effective</b>: 2023-07-12 16:08:00+0000</p><p><b>issued</b>: 2023-07-12 16:08:00+0000</p><p><b>value</b>: <span title=\"Codes:\">1</span></p><p><b>derivedFrom</b>: </p><ul><li><a href=\"Observation-ObservationResponseMentalState44250-9.html\">Observation Little interest or pleasure in doing things in last 2 weeks</a></li><li><a href=\"Observation-ObservationResponseMentalState44255-8.html\">Observation Feeling down, depressed, or hopeless in last 2 weeks</a></li></ul></div>"
      },
      "status" : "final",
      "category" : [{
        "coding" : [{
          "system" : "http://terminology.hl7.org/CodeSystem/observation-category",
          "code" : "social-history",
          "display" : "Social History"
        }]
      },
      {
        "coding" : [{
          "system" : "http://terminology.hl7.org/CodeSystem/observation-category",
          "code" : "survey",
          "display" : "Survey"
        }]
      },
      {
        "coding" : [{
          "system" : "http://snomed.info/sct",
          "code" : "36456004",
          "display" : "Mental state finding (finding)"
        }]
      },
      {
        "coding" : [{
          "system" : "http://terminology.hl7.org/CodeSystem/observation-category",
          "code" : "social-history"
        }]
      },
      {
        "coding" : [{
          "system" : "http://terminology.hl7.org/CodeSystem/observation-category",
          "code" : "survey"
        }]
      }],
      "code" : {
        "coding" : [{
          "display" : "Calculated mental health score"
        }]
      },
      "subject" : {
        "reference" : "Patient/PatientExample"
      },
      "effectiveDateTime" : "2023-07-12T16:08:00.000Z",
      "issued" : "2023-07-12T16:08:00.000Z",
      "valueCodeableConcept" : {
        "coding" : [{
          "system" : "http://unitsofmeasure.org",
          "display" : "{Number}"
        }],
        "text" : "1"
      },
      "derivedFrom" : [{
        "reference" : "Observation/ObservationResponseMentalState44250-9"
      },
      {
        "reference" : "Observation/ObservationResponseMentalState44255-8"
      }]
    }
  },
  {
    "resource" : {
      "resourceType" : "Observation",
      "id" : "ObservationResponseStress93038-8",
      "meta" : {
        "lastUpdated" : "2024-02-23T00:00:00Z",
        "profile" : ["http://shinny.org/StructureDefinition/shin-ny-observation-screening-response",
        "http://hl7.org/fhir/us/sdoh-clinicalcare/StructureDefinition/SDOHCC-ObservationScreeningResponse"]
      },
      "text" : {
        "status" : "generated",
        "div" : "<div xmlns=\"http://www.w3.org/1999/xhtml\"><a name=\"Observation_ObservationResponseStress93038-8\"> </a><p class=\"res-header-id\"><b>Generated Narrative: Observation ObservationResponseStress93038-8</b></p><a name=\"ObservationResponseStress93038-8\"> </a><a name=\"hcObservationResponseStress93038-8\"> </a><a name=\"ObservationResponseStress93038-8-en-US\"> </a><div style=\"display: inline-block; background-color: #d9e0e7; padding: 6px; margin: 4px; border: 1px solid #8da1b4; border-radius: 5px; line-height: 60%\"><p style=\"margin-bottom: 0px\">Last updated: 2024-02-23 00:00:00+0000</p><p style=\"margin-bottom: 0px\">Profiles: <a href=\"StructureDefinition-shin-ny-observation-screening-response.html\">SHINNY Observation Screening Response Profile</a>, <a href=\"http://hl7.org/fhir/us/sdoh-clinicalcare/STU2.1/StructureDefinition-SDOHCC-ObservationScreeningResponse.html\">SDOHCC Observation Screening Response</a></p></div><p><b>status</b>: Final</p><p><b>category</b>: <span title=\"Codes:{http://terminology.hl7.org/CodeSystem/observation-category social-history}\">Social History</span>, <span title=\"Codes:{http://terminology.hl7.org/CodeSystem/observation-category survey}\">Survey</span>, <span title=\"Codes:{http://hl7.org/fhir/us/sdoh-clinicalcare/CodeSystem/SDOHCC-CodeSystemTemporaryCodes stress}\">Stress</span>, <span title=\"Codes:{http://terminology.hl7.org/CodeSystem/observation-category social-history}\">Social History</span>, <span title=\"Codes:{http://terminology.hl7.org/CodeSystem/observation-category survey}\">Survey</span></p><p><b>code</b>: <span title=\"Codes:{http://loinc.org 93038-8}\">Stress means a situation in which a person feels tense, restless, nervous, or anxious, or is unable to sleep at night because his or her mind is troubled all the time. Do you feel this kind of stress these days?</span></p><p><b>subject</b>: <a href=\"Patient-PatientExample.html\">Jon Doe  Male, DoB: 1981-07-16 ( Medical record number)</a></p><p><b>effective</b>: 2023-07-12 16:08:00+0000</p><p><b>issued</b>: 2023-07-12 16:08:00+0000</p><p><b>value</b>: <span title=\"Codes:{http://loinc.org LA6568-5}\">Not at all</span></p></div>"
      },
      "status" : "final",
      "category" : [{
        "coding" : [{
          "system" : "http://terminology.hl7.org/CodeSystem/observation-category",
          "code" : "social-history",
          "display" : "Social History"
        }]
      },
      {
        "coding" : [{
          "system" : "http://terminology.hl7.org/CodeSystem/observation-category",
          "code" : "survey",
          "display" : "Survey"
        }]
      },
      {
        "coding" : [{
          "system" : "http://hl7.org/fhir/us/sdoh-clinicalcare/CodeSystem/SDOHCC-CodeSystemTemporaryCodes",
          "code" : "stress",
          "display" : "Stress"
        }]
      },
      {
        "coding" : [{
          "system" : "http://terminology.hl7.org/CodeSystem/observation-category",
          "code" : "social-history"
        }]
      },
      {
        "coding" : [{
          "system" : "http://terminology.hl7.org/CodeSystem/observation-category",
          "code" : "survey"
        }]
      }],
      "code" : {
        "coding" : [{
          "system" : "http://loinc.org",
          "code" : "93038-8",
          "display" : "Stress level"
        }],
        "text" : "Stress means a situation in which a person feels tense, restless, nervous, or anxious, or is unable to sleep at night because his or her mind is troubled all the time. Do you feel this kind of stress these days?"
      },
      "subject" : {
        "reference" : "Patient/PatientExample"
      },
      "effectiveDateTime" : "2023-07-12T16:08:00.000Z",
      "issued" : "2023-07-12T16:08:00.000Z",
      "valueCodeableConcept" : {
        "coding" : [{
          "system" : "http://loinc.org",
          "code" : "LA6568-5",
          "display" : "Not at all"
        }]
      }
    }
  },
  {
    "resource" : {
      "resourceType" : "Observation",
      "id" : "ObservationResponseStress69858-9",
      "meta" : {
        "lastUpdated" : "2024-02-23T00:00:00Z",
        "profile" : ["http://shinny.org/StructureDefinition/shin-ny-observation-screening-response",
        "http://hl7.org/fhir/us/sdoh-clinicalcare/StructureDefinition/SDOHCC-ObservationScreeningResponse"]
      },
      "text" : {
        "status" : "generated",
        "div" : "<div xmlns=\"http://www.w3.org/1999/xhtml\"><a name=\"Observation_ObservationResponseStress69858-9\"> </a><p class=\"res-header-id\"><b>Generated Narrative: Observation ObservationResponseStress69858-9</b></p><a name=\"ObservationResponseStress69858-9\"> </a><a name=\"hcObservationResponseStress69858-9\"> </a><a name=\"ObservationResponseStress69858-9-en-US\"> </a><div style=\"display: inline-block; background-color: #d9e0e7; padding: 6px; margin: 4px; border: 1px solid #8da1b4; border-radius: 5px; line-height: 60%\"><p style=\"margin-bottom: 0px\">Last updated: 2024-02-23 00:00:00+0000</p><p style=\"margin-bottom: 0px\">Profiles: <a href=\"StructureDefinition-shin-ny-observation-screening-response.html\">SHINNY Observation Screening Response Profile</a>, <a href=\"http://hl7.org/fhir/us/sdoh-clinicalcare/STU2.1/StructureDefinition-SDOHCC-ObservationScreeningResponse.html\">SDOHCC Observation Screening Response</a></p></div><p><b>status</b>: Final</p><p><b>category</b>: <span title=\"Codes:{http://terminology.hl7.org/CodeSystem/observation-category social-history}\">Social History</span>, <span title=\"Codes:{http://terminology.hl7.org/CodeSystem/observation-category survey}\">Survey</span>, <span title=\"Codes:{http://hl7.org/fhir/us/sdoh-clinicalcare/CodeSystem/SDOHCC-CodeSystemTemporaryCodes sdoh-category-unspecified}\">Stress</span>, <span title=\"Codes:{http://terminology.hl7.org/CodeSystem/observation-category social-history}\">Social History</span>, <span title=\"Codes:{http://terminology.hl7.org/CodeSystem/observation-category survey}\">Survey</span></p><p><b>code</b>: <span title=\"Codes:{http://loinc.org 69858-9}\">Because of a physical, mental, or emotional condition, do you have serious difficulty concentrating, remembering, or making decisions?</span></p><p><b>subject</b>: <a href=\"Patient-PatientExample.html\">Jon Doe  Male, DoB: 1981-07-16 ( Medical record number)</a></p><p><b>effective</b>: 2023-07-12 16:08:00+0000</p><p><b>issued</b>: 2023-07-12 16:08:00+0000</p><p><b>value</b>: <span title=\"Codes:{http://loinc.org LA32-8}\">No</span></p></div>"
      },
      "status" : "final",
      "category" : [{
        "coding" : [{
          "system" : "http://terminology.hl7.org/CodeSystem/observation-category",
          "code" : "social-history",
          "display" : "Social History"
        }]
      },
      {
        "coding" : [{
          "system" : "http://terminology.hl7.org/CodeSystem/observation-category",
          "code" : "survey",
          "display" : "Survey"
        }]
      },
      {
        "coding" : [{
          "system" : "http://hl7.org/fhir/us/sdoh-clinicalcare/CodeSystem/SDOHCC-CodeSystemTemporaryCodes",
          "code" : "sdoh-category-unspecified",
          "display" : "SDOH Category Unspecified"
        }],
        "text" : "Stress"
      },
      {
        "coding" : [{
          "system" : "http://terminology.hl7.org/CodeSystem/observation-category",
          "code" : "social-history"
        }]
      },
      {
        "coding" : [{
          "system" : "http://terminology.hl7.org/CodeSystem/observation-category",
          "code" : "survey"
        }]
      }],
      "code" : {
        "coding" : [{
          "system" : "http://loinc.org",
          "code" : "69858-9",
          "display" : "Because of a physical, mental, or emotional condition, do you have serious difficulty concentrating, remembering, or making decisions"
        }],
        "text" : "Because of a physical, mental, or emotional condition, do you have serious difficulty concentrating, remembering, or making decisions?"
      },
      "subject" : {
        "reference" : "Patient/PatientExample"
      },
      "effectiveDateTime" : "2023-07-12T16:08:00.000Z",
      "issued" : "2023-07-12T16:08:00.000Z",
      "valueCodeableConcept" : {
        "coding" : [{
          "system" : "http://loinc.org",
          "code" : "LA32-8",
          "display" : "No"
        }]
      }
    }
  },
  {
    "resource" : {
      "resourceType" : "Observation",
      "id" : "ObservationResponseDisability69861-3",
      "meta" : {
        "lastUpdated" : "2024-02-23T00:00:00Z",
        "profile" : ["http://shinny.org/StructureDefinition/shin-ny-observation-screening-response",
        "http://hl7.org/fhir/us/sdoh-clinicalcare/StructureDefinition/SDOHCC-ObservationScreeningResponse"]
      },
      "text" : {
        "status" : "generated",
        "div" : "<div xmlns=\"http://www.w3.org/1999/xhtml\"><a name=\"Observation_ObservationResponseDisability69861-3\"> </a><p class=\"res-header-id\"><b>Generated Narrative: Observation ObservationResponseDisability69861-3</b></p><a name=\"ObservationResponseDisability69861-3\"> </a><a name=\"hcObservationResponseDisability69861-3\"> </a><a name=\"ObservationResponseDisability69861-3-en-US\"> </a><div style=\"display: inline-block; background-color: #d9e0e7; padding: 6px; margin: 4px; border: 1px solid #8da1b4; border-radius: 5px; line-height: 60%\"><p style=\"margin-bottom: 0px\">Last updated: 2024-02-23 00:00:00+0000</p><p style=\"margin-bottom: 0px\">Profiles: <a href=\"StructureDefinition-shin-ny-observation-screening-response.html\">SHINNY Observation Screening Response Profile</a>, <a href=\"http://hl7.org/fhir/us/sdoh-clinicalcare/STU2.1/StructureDefinition-SDOHCC-ObservationScreeningResponse.html\">SDOHCC Observation Screening Response</a></p></div><p><b>status</b>: Final</p><p><b>category</b>: <span title=\"Codes:{http://terminology.hl7.org/CodeSystem/observation-category social-history}\">Social History</span>, <span title=\"Codes:{http://terminology.hl7.org/CodeSystem/observation-category survey}\">Survey</span>, <span title=\"Codes:{http://hl7.org/fhir/us/sdoh-clinicalcare/CodeSystem/SDOHCC-CodeSystemTemporaryCodes sdoh-category-unspecified}\">Disability</span>, <span title=\"Codes:{http://terminology.hl7.org/CodeSystem/observation-category social-history}\">Social History</span>, <span title=\"Codes:{http://terminology.hl7.org/CodeSystem/observation-category survey}\">Survey</span></p><p><b>code</b>: <span title=\"Codes:{http://loinc.org 69861-3}\">Because of a physical, mental, or emotional condition, do you have difficulty doing errands alone such as visiting a physician's office or shopping?</span></p><p><b>subject</b>: <a href=\"Patient-PatientExample.html\">Jon Doe  Male, DoB: 1981-07-16 ( Medical record number)</a></p><p><b>effective</b>: 2023-07-12 16:08:00+0000</p><p><b>issued</b>: 2023-07-12 16:08:00+0000</p><p><b>value</b>: <span title=\"Codes:{http://loinc.org LA32-8}\">No</span></p></div>"
      },
      "status" : "final",
      "category" : [{
        "coding" : [{
          "system" : "http://terminology.hl7.org/CodeSystem/observation-category",
          "code" : "social-history",
          "display" : "Social History"
        }]
      },
      {
        "coding" : [{
          "system" : "http://terminology.hl7.org/CodeSystem/observation-category",
          "code" : "survey",
          "display" : "Survey"
        }]
      },
      {
        "coding" : [{
          "system" : "http://hl7.org/fhir/us/sdoh-clinicalcare/CodeSystem/SDOHCC-CodeSystemTemporaryCodes",
          "code" : "sdoh-category-unspecified",
          "display" : "SDOH Category Unspecified"
        }],
        "text" : "Disability"
      },
      {
        "coding" : [{
          "system" : "http://terminology.hl7.org/CodeSystem/observation-category",
          "code" : "social-history"
        }]
      },
      {
        "coding" : [{
          "system" : "http://terminology.hl7.org/CodeSystem/observation-category",
          "code" : "survey"
        }]
      }],
      "code" : {
        "coding" : [{
          "system" : "http://loinc.org",
          "code" : "69861-3",
          "display" : "Because of a physical, mental, or emotional condition, do you have difficulty doing errands alone such as visiting a physician's office or shopping"
        }],
        "text" : "Because of a physical, mental, or emotional condition, do you have difficulty doing errands alone such as visiting a physician's office or shopping?"
      },
      "subject" : {
        "reference" : "Patient/PatientExample"
      },
      "effectiveDateTime" : "2023-07-12T16:08:00.000Z",
      "issued" : "2023-07-12T16:08:00.000Z",
      "valueCodeableConcept" : {
        "coding" : [{
          "system" : "http://loinc.org",
          "code" : "LA32-8",
          "display" : "No"
        }]
      }
    }
  },
  {
    "resource" : {
      "resourceType" : "Observation",
      "id" : "ObservationResponseSupplementalGroup97023-6",
      "meta" : {
        "lastUpdated" : "2024-02-23T00:00:00Z",
        "profile" : ["http://shinny.org/StructureDefinition/shin-ny-observation-screening-response",
        "http://hl7.org/fhir/us/sdoh-clinicalcare/StructureDefinition/SDOHCC-ObservationScreeningResponse"]
      },
      "text" : {
        "status" : "generated",
        "div" : "<div xmlns=\"http://www.w3.org/1999/xhtml\"><a name=\"Observation_ObservationResponseSupplementalGroup97023-6\"> </a><p class=\"res-header-id\"><b>Generated Narrative: Observation ObservationResponseSupplementalGroup97023-6</b></p><a name=\"ObservationResponseSupplementalGroup97023-6\"> </a><a name=\"hcObservationResponseSupplementalGroup97023-6\"> </a><a name=\"ObservationResponseSupplementalGroup97023-6-en-US\"> </a><div style=\"display: inline-block; background-color: #d9e0e7; padding: 6px; margin: 4px; border: 1px solid #8da1b4; border-radius: 5px; line-height: 60%\"><p style=\"margin-bottom: 0px\">Last updated: 2024-02-23 00:00:00+0000</p><p style=\"margin-bottom: 0px\">Profiles: <a href=\"StructureDefinition-shin-ny-observation-screening-response.html\">SHINNY Observation Screening Response Profile</a>, <a href=\"http://hl7.org/fhir/us/sdoh-clinicalcare/STU2.1/StructureDefinition-SDOHCC-ObservationScreeningResponse.html\">SDOHCC Observation Screening Response</a></p></div><p><b>status</b>: Final</p><p><b>category</b>: <span title=\"Codes:{http://terminology.hl7.org/CodeSystem/observation-category social-history}\">Social History</span>, <span title=\"Codes:{http://terminology.hl7.org/CodeSystem/observation-category survey}\">Survey</span>, <span title=\"Codes:{http://hl7.org/fhir/us/sdoh-clinicalcare/CodeSystem/SDOHCC-CodeSystemTemporaryCodes financial-insecurity}\">Financial Insecurity</span>, <span title=\"Codes:{http://hl7.org/fhir/us/sdoh-clinicalcare/CodeSystem/SDOHCC-CodeSystemTemporaryCodes employment-status}\">Employment Status</span>, <span title=\"Codes:{http://hl7.org/fhir/us/sdoh-clinicalcare/CodeSystem/SDOHCC-CodeSystemTemporaryCodes social-connection}\">Social Connection</span>, <span title=\"Codes:{http://snomed.info/sct 106133000}\">Language finding (finding)</span>, <span title=\"Codes:{http://snomed.info/sct 365458002}\">Education and/or schooling finding</span>, <span title=\"Codes:{http://snomed.info/sct 129861002}\">Physical activity finding (finding)</span>, <span title=\"Codes:{http://snomed.info/sct 228366006}\">Finding relating to drug misuse behavior (finding)</span>, <span title=\"Codes:{http://snomed.info/sct 36456004}\">Mental state finding (finding)</span>, <span title=\"Codes:{http://hl7.org/fhir/us/sdoh-clinicalcare/CodeSystem/SDOHCC-CodeSystemTemporaryCodes stress}\">Stress</span>, <span title=\"Codes:{http://hl7.org/fhir/us/sdoh-clinicalcare/CodeSystem/SDOHCC-CodeSystemTemporaryCodes sdoh-category-unspecified}\">SDOH Category Unspecified</span>, <span title=\"Codes:{http://terminology.hl7.org/CodeSystem/observation-category social-history}\">Social History</span>, <span title=\"Codes:{http://terminology.hl7.org/CodeSystem/observation-category survey}\">Survey</span></p><p><b>code</b>: <span title=\"Codes:{http://loinc.org 97023-6}\">Accountable health communities (AHC) health-related social needs (HRSN) supplemental questions</span></p><p><b>subject</b>: <a href=\"Patient-PatientExample.html\">Jon Doe  Male, DoB: 1981-07-16 ( Medical record number)</a></p><p><b>encounter</b>: <a href=\"Encounter-EncounterExample.html\">Encounter: status = finished; class = field (ActCode#FLD); type = Direct questioning (procedure)</a></p><p><b>effective</b>: 2023-07-12 16:08:00+0000</p><p><b>issued</b>: 2023-07-12 16:08:00+0000</p><p><b>interpretation</b>: <span title=\"Codes:{http://terminology.hl7.org/CodeSystem/v3-ObservationInterpretation POS}\">Positive</span></p><p><b>hasMember</b>: </p><ul><li><a href=\"Observation-ObservationResponseFinancialInsecurity76513-1.html\">Observation How hard is it for you to pay for the very basics like food, housing, medical care, and heating</a></li><li><a href=\"Observation-ObservationResponseEmploymentStatus96780-2.html\">Observation Wants help finding or keeping work or a job</a></li><li><a href=\"Observation-ObservationResponseSocialConnection96781-0.html\">Observation Able to get help with daily activities when needed</a></li><li><a href=\"OObservationResponseSocialHistory93159-2\">OObservationResponseSocialHistory93159-2</a></li><li><a href=\"Observation-ObservationResponseLanguageFinding97027-7.html\">Observation Speaks a language other than English at home</a></li><li><a href=\"Observation-ObservationResponseEducation96782-8.html\">Observation Wants help with school or training</a></li><li><a href=\"Observation-ObservationResponsePhysicalActivity89555-7.html\">Observation How many days per week did you engage in moderate to strenuous physical activity in the last 30 days</a></li><li><a href=\"Observation-ObservationResponsePhysicalActivity68516-4.html\">Observation On those days that you engage in moderate to strenuous exercise, how many minutes, on average, do you exercise</a></li><li><a href=\"Observation-ObservationResponsePhysicalActivityWeekly.html\">Observation Calculated weekly physical activity</a></li><li><a href=\"Observation-ObservationResponseAlcoholUse68517-2.html\">Observation How many times in the past year have you have X or more drinks in a day</a></li><li><a href=\"Observation-ObservationResponseTobaccoUse96842-0.html\">Observation How often have you used any tobacco product in past 12 months</a></li><li><a href=\"Observation-ObservationResponseSubstanceUse95530-2.html\">Observation Prescription drug use for non-medical reasons in the past year</a></li><li><a href=\"Observation-ObservationResponseDrugUse68524-8.html\">Observation How many times in the past year have you used an illegal drug or used a prescription medication for non-medical reasons</a></li><li><a href=\"Observation-ObservationResponseMentalState44250-9.html\">Observation Little interest or pleasure in doing things in last 2 weeks</a></li><li><a href=\"Observation-ObservationResponseMentalState44255-8.html\">Observation Feeling down, depressed, or hopeless in last 2 weeks</a></li><li><a href=\"Observation-ObservationResponseMentalStateScore.html\">Observation Calculated mental health score</a></li><li><a href=\"Observation-ObservationResponseStress93038-8.html\">Observation Stress level</a></li><li><a href=\"Observation-ObservationResponseStress69858-9.html\">Observation Because of a physical, mental, or emotional condition, do you have serious difficulty concentrating, remembering, or making decisions</a></li><li><a href=\"Observation-ObservationResponseDisability69861-3.html\">Observation Because of a physical, mental, or emotional condition, do you have difficulty doing errands alone such as visiting a physician's office or shopping</a></li></ul></div>"
      },
      "status" : "final",
      "category" : [{
        "coding" : [{
          "system" : "http://terminology.hl7.org/CodeSystem/observation-category",
          "code" : "social-history",
          "display" : "Social History"
        }]
      },
      {
        "coding" : [{
          "system" : "http://terminology.hl7.org/CodeSystem/observation-category",
          "code" : "survey",
          "display" : "Survey"
        }]
      },
      {
        "coding" : [{
          "system" : "http://hl7.org/fhir/us/sdoh-clinicalcare/CodeSystem/SDOHCC-CodeSystemTemporaryCodes",
          "code" : "financial-insecurity",
          "display" : "Financial Insecurity"
        }]
      },
      {
        "coding" : [{
          "system" : "http://hl7.org/fhir/us/sdoh-clinicalcare/CodeSystem/SDOHCC-CodeSystemTemporaryCodes",
          "code" : "employment-status",
          "display" : "Employment Status"
        }]
      },
      {
        "coding" : [{
          "system" : "http://hl7.org/fhir/us/sdoh-clinicalcare/CodeSystem/SDOHCC-CodeSystemTemporaryCodes",
          "code" : "social-connection",
          "display" : "Social Connection"
        }]
      },
      {
        "coding" : [{
          "system" : "http://snomed.info/sct",
          "code" : "106133000",
          "display" : "Language finding (finding)"
        }]
      },
      {
        "coding" : [{
          "system" : "http://snomed.info/sct",
          "code" : "365458002",
          "display" : "Education and/or schooling finding"
        }]
      },
      {
        "coding" : [{
          "system" : "http://snomed.info/sct",
          "code" : "129861002",
          "display" : "Physical activity finding (finding)"
        }]
      },
      {
        "coding" : [{
          "system" : "http://snomed.info/sct",
          "code" : "228366006",
          "display" : "Finding relating to drug misuse behavior (finding)"
        }]
      },
      {
        "coding" : [{
          "system" : "http://snomed.info/sct",
          "code" : "36456004",
          "display" : "Mental state finding (finding)"
        }]
      },
      {
        "coding" : [{
          "system" : "http://hl7.org/fhir/us/sdoh-clinicalcare/CodeSystem/SDOHCC-CodeSystemTemporaryCodes",
          "code" : "stress",
          "display" : "Stress"
        }]
      },
      {
        "coding" : [{
          "system" : "http://hl7.org/fhir/us/sdoh-clinicalcare/CodeSystem/SDOHCC-CodeSystemTemporaryCodes",
          "code" : "sdoh-category-unspecified",
          "display" : "SDOH Category Unspecified"
        }]
      },
      {
        "coding" : [{
          "system" : "http://terminology.hl7.org/CodeSystem/observation-category",
          "code" : "social-history"
        }]
      },
      {
        "coding" : [{
          "system" : "http://terminology.hl7.org/CodeSystem/observation-category",
          "code" : "survey"
        }]
      }],
      "code" : {
        "coding" : [{
          "system" : "http://loinc.org",
          "code" : "97023-6",
          "display" : "Accountable health communities (AHC) health-related social needs (HRSN) supplemental questions"
        }]
      },
      "subject" : {
        "reference" : "Patient/PatientExample"
      },
      "encounter" : {
        "reference" : "Encounter/EncounterExample"
      },
      "effectiveDateTime" : "2023-07-12T16:08:00.000Z",
      "issued" : "2023-07-12T16:08:00.000Z",
      "interpretation" : [{
        "coding" : [{
          "system" : "http://terminology.hl7.org/CodeSystem/v3-ObservationInterpretation",
          "code" : "POS",
          "display" : "Positive"
        }]
      }],
      "hasMember" : [{
        "reference" : "Observation/ObservationResponseFinancialInsecurity76513-1"
      },
      {
        "reference" : "Observation/ObservationResponseEmploymentStatus96780-2"
      },
      {
        "reference" : "Observation/ObservationResponseSocialConnection96781-0"
      },
      {
        "reference" : "OObservationResponseSocialHistory93159-2"
      },
      {
        "reference" : "Observation/ObservationResponseLanguageFinding97027-7"
      },
      {
        "reference" : "Observation/ObservationResponseEducation96782-8"
      },
      {
        "reference" : "Observation/ObservationResponsePhysicalActivity89555-7"
      },
      {
        "reference" : "Observation/ObservationResponsePhysicalActivity68516-4"
      },
      {
        "reference" : "Observation/ObservationResponsePhysicalActivityWeekly"
      },
      {
        "reference" : "Observation/ObservationResponseAlcoholUse68517-2"
      },
      {
        "reference" : "Observation/ObservationResponseTobaccoUse96842-0"
      },
      {
        "reference" : "Observation/ObservationResponseSubstanceUse95530-2"
      },
      {
        "reference" : "Observation/ObservationResponseDrugUse68524-8"
      },
      {
        "reference" : "Observation/ObservationResponseMentalState44250-9"
      },
      {
        "reference" : "Observation/ObservationResponseMentalState44255-8"
      },
      {
        "reference" : "Observation/ObservationResponseMentalStateScore"
      },
      {
        "reference" : "Observation/ObservationResponseStress93038-8"
      },
      {
        "reference" : "Observation/ObservationResponseStress69858-9"
      },
      {
        "reference" : "Observation/ObservationResponseDisability69861-3"
      }]
    }
  }]
}