{
  "resourceType" : "Bundle",
  "id" : "NYScreeningResponseExample",
  "meta" : {
    "lastUpdated" : "2024-02-23T00:00:00Z",
    "profile" : ["http://shinny.org/StructureDefinition/SHINNYBundleProfile"]
  },
  "type" : "transaction",
  "timestamp" : "2024-02-03T00:00:00Z",
  "entry" : [{
    "resource" : {
      "resourceType" : "Patient",
      "id" : "PatientExample",
      "meta" : {
        "lastUpdated" : "2024-02-23T00:00:00.00Z",
        "profile" : ["http://shinny.org/StructureDefinition/shinny-patient"]
      },
      "language" : "en",
      "text" : {
        "status" : "generated",
        "div" : "<div xmlns=\"http://www.w3.org/1999/xhtml\" xml:lang=\"en\" lang=\"en\"><a name=\"Patient_PatientExample\"> </a><p class=\"res-header-id\"><b>Generated Narrative: Patient PatientExample</b></p><a name=\"PatientExample\"> </a><a name=\"hcPatientExample\"> </a><a name=\"PatientExample-en-US\"> </a><div style=\"display: inline-block; background-color: #d9e0e7; padding: 6px; margin: 4px; border: 1px solid #8da1b4; border-radius: 5px; line-height: 60%\"><p style=\"margin-bottom: 0px\">Last updated: 2024-02-23 00:00:00+0000; Language: en</p><p style=\"margin-bottom: 0px\">Profile: <a href=\"StructureDefinition-shinny-patient.html\">SHINNY Patient Profile</a></p></div><p style=\"border: 1px #661aff solid; background-color: #e6e6ff; padding: 10px;\">Jon Doe  Male, DoB: 1981-07-16 ( Medical record number)</p><hr/><table class=\"grid\"><tr><td style=\"background-color: #f3f5da\" title=\"Other Ids (see the one above)\">Other Ids:</td><td colspan=\"3\"><ul><li>Patient Medicaid number/AA12345C</li><li>Social Security Number/999-34-2964</li></ul></td></tr><tr><td style=\"background-color: #f3f5da\" title=\"Ways to contact the Patient\">Contact Detail</td><td colspan=\"3\"><ul><li>ph: 555-120-6047(Home)</li><li>115 Broadway\tApt2</li></ul></td></tr><tr><td style=\"background-color: #f3f5da\" title=\"Language spoken\">Language:</td><td colspan=\"3\"><span title=\"Codes:{urn:iso:std:iso:639 EN}\">EN</span> (preferred)</td></tr><tr><td style=\"background-color: #f3f5da\" title=\"Concepts classifying the person into a named category of humans sharing common history, traits, geographical origin or nationality.  The ethnicity codes used to represent these concepts are based upon the [CDC ethnicity and Ethnicity Code Set Version 1.0](http://www.cdc.gov/phin/resources/vocabulary/index.html) which includes over 900 concepts for representing race and ethnicity of which 43 reference ethnicity.  The ethnicity concepts are grouped by and pre-mapped to the 2 OMB ethnicity categories: - Hispanic or Latino - Not Hispanic or Latino.\">US Core Ethnicity Extension:</td><td colspan=\"3\"><ul><li>ombCategory: <a href=\"http://hl7.org/fhir/us/core/STU3.1.1/CodeSystem-cdcrec.html#cdcrec-2135-2\">Race &amp; Ethnicity - CDC</a> 2135-2: Hispanic or Latino</li></ul></td></tr><tr><td style=\"background-color: #f3f5da\" title=\"A code classifying the person's sex assigned at birth  as specified by the [Office of the National Coordinator for Health IT (ONC)](https://www.healthit.gov/newsroom/about-onc). This extension aligns with the C-CDA Birth Sex Observation (LOINC 76689-9).\"><a href=\"http://hl7.org/fhir/us/core/STU3.1.1/StructureDefinition-us-core-birthsex.html\">US Core Birth Sex Extension</a></td><td colspan=\"3\">M</td></tr><tr><td style=\"background-color: #f3f5da\" title=\"Concepts classifying the person into a named category of humans sharing common history, traits, geographical origin or nationality.  The race codes used to represent these concepts are based upon the [CDC Race and Ethnicity Code Set Version 1.0](http://www.cdc.gov/phin/resources/vocabulary/index.html) which includes over 900 concepts for representing race and ethnicity of which 921 reference race.  The race concepts are grouped by and pre-mapped to the 5 OMB race categories:\n\n - American Indian or Alaska Native\n - Asian\n - Black or African American\n - Native Hawaiian or Other Pacific Islander\n - White.\">US Core Race Extension:</td><td colspan=\"3\"><ul><li>ombCategory: <a href=\"http://hl7.org/fhir/us/core/STU3.1.1/CodeSystem-cdcrec.html#cdcrec-2106-3\">Race &amp; Ethnicity - CDC</a> 2106-3: White</li></ul></td></tr></table></div>"
      },
      "extension" : [{
        "extension" : [{
          "url" : "ombCategory",
          "valueCoding" : {
            "system" : "urn:oid:2.16.840.1.113883.6.238",
            "code" : "2106-3",
            "display" : "White"
          }
        }],
        "url" : "http://hl7.org/fhir/us/core/StructureDefinition/us-core-race"
      },
      {
        "extension" : [{
          "url" : "ombCategory",
          "valueCoding" : {
            "system" : "urn:oid:2.16.840.1.113883.6.238",
            "code" : "2135-2",
            "display" : "Hispanic or Latino"
          }
        }],
        "url" : "http://hl7.org/fhir/us/core/StructureDefinition/us-core-ethnicity"
      },
      {
        "url" : "http://hl7.org/fhir/us/core/StructureDefinition/us-core-birthsex",
        "valueCode" : "M"
      }],
      "identifier" : [{
        "type" : {
          "coding" : [{
            "system" : "http://terminology.hl7.org/CodeSystem/v2-0203",
            "code" : "MR"
          }]
        },
        "system" : "http://www.scn.gov/facility/CUMC",
        "value" : "11223344",
        "assigner" : {
          "reference" : "Organization/SCNExample"
        }
      },
      {
        "type" : {
          "coding" : [{
            "system" : "http://terminology.hl7.org/CodeSystem/v2-0203",
            "code" : "MA"
          }]
        },
        "system" : "http://www.medicaid.gov/",
        "value" : "AA12345C",
        "assigner" : {
          "reference" : "Organization/InsuranceExample"
        }
      },
      {
        "type" : {
          "coding" : [{
            "system" : "http://terminology.hl7.org/CodeSystem/v2-0203",
            "code" : "SS",
            "display" : "Social Security Number"
          }],
          "text" : "Social Security Number"
        },
        "system" : "http://hl7.org/fhir/sid/us-ssn",
        "value" : "999-34-2964"
      }],
      "name" : [{
        "family" : "Doe",
        "given" : ["Jon"],
        "prefix" : ["Mr.",
        "Dr.",
        "PhD",
        "CCNA"],
        "suffix" : ["Jr.",
        "III"]
      }],
      "telecom" : [{
        "system" : "phone",
        "value" : "555-120-6047",
        "use" : "home"
      }],
      "gender" : "male",
      "birthDate" : "1981-07-16",
      "address" : [{
        "text" : "115 Broadway\tApt2",
        "line" : ["115 Broadway Apt2"],
        "city" : "New York",
        "state" : "NY",
        "postalCode" : "10032"
      }],
      "communication" : [{
        "extension" : [{
          "url" : "http://shinny.org/fhir/StructureDefinition/fluency-level",
          "valueInteger" : 7
        },
        {
          "url" : "http://shinny.org/fhir/StructureDefinition/writing-level",
          "valueInteger" : 7
        }],
        "language" : {
          "coding" : [{
            "system" : "urn:iso:std:iso:639",
            "code" : "EN"
          }]
        },
        "preferred" : true
      }]
    }
  },
  {
    "resource" : {
      "resourceType" : "Organization",
      "id" : "InsuranceExample",
      "meta" : {
        "lastUpdated" : "2024-02-23T00:00:00Z",
        "profile" : ["http://shinny.org/StructureDefinition/shin-ny-organization"]
      },
      "text" : {
        "status" : "generated",
        "div" : "<div xmlns=\"http://www.w3.org/1999/xhtml\"><a name=\"Organization_InsuranceExample\"> </a><p class=\"res-header-id\"><b>Generated Narrative: Organization InsuranceExample</b></p><a name=\"InsuranceExample\"> </a><a name=\"hcInsuranceExample\"> </a><a name=\"InsuranceExample-en-US\"> </a><div style=\"display: inline-block; background-color: #d9e0e7; padding: 6px; margin: 4px; border: 1px solid #8da1b4; border-radius: 5px; line-height: 60%\"><p style=\"margin-bottom: 0px\">Last updated: 2024-02-23 00:00:00+0000</p><p style=\"margin-bottom: 0px\">Profile: <a href=\"StructureDefinition-shin-ny-organization.html\">SHINNY Organization Profile</a></p></div><p><b>identifier</b>: National Insurance Payor Identifier (Payor)/abc</p><p><b>active</b>: true</p><p><b>type</b>: <span title=\"Codes:{http://terminology.hl7.org/CodeSystem/organization-type ins}\">Insurance Company</span></p><p><b>name</b>: Medicaid Org</p><p><b>address</b>: NY State of Health, P.O. Box 11774, Albany, NY 12211</p></div>"
      },
      "identifier" : [{
        "type" : {
          "coding" : [{
            "display" : "Medicaid"
          }],
          "text" : "National Insurance Payor Identifier (Payor)"
        },
        "system" : "http://www.medicaid.gov/",
        "value" : "abc"
      }],
      "active" : true,
      "type" : [{
        "coding" : [{
          "system" : "http://terminology.hl7.org/CodeSystem/organization-type",
          "code" : "ins",
          "display" : "Insurance Company"
        }]
      }],
      "name" : "Medicaid Org",
      "address" : [{
        "text" : "NY State of Health, P.O. Box 11774, Albany, NY 12211"
      }]
    }
  },
  {
    "resource" : {
      "resourceType" : "Organization",
      "id" : "ProviderExample",
      "meta" : {
        "lastUpdated" : "2024-02-23T00:00:00Z",
        "profile" : ["http://shinny.org/StructureDefinition/shin-ny-organization"]
      },
      "text" : {
        "status" : "generated",
        "div" : "<div xmlns=\"http://www.w3.org/1999/xhtml\"><a name=\"Organization_ProviderExample\"> </a><p class=\"res-header-id\"><b>Generated Narrative: Organization ProviderExample</b></p><a name=\"ProviderExample\"> </a><a name=\"hcProviderExample\"> </a><a name=\"ProviderExample-en-US\"> </a><div style=\"display: inline-block; background-color: #d9e0e7; padding: 6px; margin: 4px; border: 1px solid #8da1b4; border-radius: 5px; line-height: 60%\"><p style=\"margin-bottom: 0px\">Last updated: 2024-02-23 00:00:00+0000</p><p style=\"margin-bottom: 0px\">Profile: <a href=\"StructureDefinition-shin-ny-organization.html\">SHINNY Organization Profile</a></p></div><p><b>identifier</b>: Sacred Heart/2.16.840.1.113883.3.249</p><p><b>active</b>: true</p><p><b>type</b>: <span title=\"Codes:{http://terminology.hl7.org/CodeSystem/organization-type prov}\">Healthcare Provider</span></p><p><b>name</b>: Health System Org</p></div>"
      },
      "identifier" : [{
        "type" : {
          "coding" : [{
            "display" : "Sacred Heart"
          }]
        },
        "system" : "http://www.sacredheart.gov/facility/CUMC",
        "value" : "2.16.840.1.113883.3.249"
      }],
      "active" : true,
      "type" : [{
        "coding" : [{
          "system" : "http://terminology.hl7.org/CodeSystem/organization-type",
          "code" : "prov",
          "display" : "Healthcare Provider"
        }]
      }],
      "name" : "Health System Org"
    }
  },
  {
    "resource" : {
      "resourceType" : "Consent",
      "id" : "ConsentExample",
      "meta" : {
        "lastUpdated" : "2024-02-23T00:00:00Z",
        "profile" : ["http://shinny.org/StructureDefinition/shinny-Consent",
        "http://shinny.org/StructureDefinition/shinny-consent"]
      },
      "text" : {
        "status" : "generated",
        "div" : "<div xmlns=\"http://www.w3.org/1999/xhtml\"><a name=\"Consent_ConsentExample\"> </a><p class=\"res-header-id\"><b>Generated Narrative: Consent ConsentExample</b></p><a name=\"ConsentExample\"> </a><a name=\"hcConsentExample\"> </a><a name=\"ConsentExample-en-US\"> </a><div style=\"display: inline-block; background-color: #d9e0e7; padding: 6px; margin: 4px; border: 1px solid #8da1b4; border-radius: 5px; line-height: 60%\"><p style=\"margin-bottom: 0px\">Last updated: 2024-02-23 00:00:00+0000</p><p style=\"margin-bottom: 0px\">Profiles: <a href=\"StructureDefinition-shinny-Consent.html\">SHINNY Consent Profile</a>, <code>http://shinny.org/StructureDefinition/shinny-consent</code></p></div><p><b>status</b>: Active</p><p><b>scope</b>: <span title=\"Codes:\">treatment</span></p><p><b>category</b>: <span title=\"Codes:\">Patient Consent</span></p><p><b>patient</b>: <a href=\"Patient/JonDoe\">Patient/JonDoe</a></p><h3>Policies</h3><table class=\"grid\"><tr><td style=\"display: none\">-</td><td><b>Authority</b></td></tr><tr><td style=\"display: none\">*</td><td>urn:uuid:SacredHeart</td></tr></table><h3>Provisions</h3><table class=\"grid\"><tr><td style=\"display: none\">-</td><td><b>Type</b></td></tr><tr><td style=\"display: none\">*</td><td>Opt In</td></tr></table></div>"
      },
      "status" : "active",
      "scope" : {
        "coding" : [{
          "code" : "treatment"
        }],
        "text" : "treatment"
      },
      "category" : [{
        "coding" : [{
          "code" : "59284-0",
          "display" : "Patient Consent"
        }]
      }],
      "patient" : {
        "reference" : "Patient/JonDoe"
      },
      "policy" : [{
        "authority" : "urn:uuid:SacredHeart"
      }],
      "provision" : {
        "type" : "permit"
      }
    }
  },
  {
    "resource" : {
      "resourceType" : "Encounter",
      "id" : "EncounterExample",
      "meta" : {
        "lastUpdated" : "2024-02-23T00:00:00Z",
        "profile" : ["http://shinny.org/StructureDefinition/shinny-encounter",
        "http://shinny.org/StructureDefinition/shin-ny-encounter"]
      },
      "text" : {
        "status" : "generated",
        "div" : "<div xmlns=\"http://www.w3.org/1999/xhtml\"><a name=\"Encounter_EncounterExample\"> </a><p class=\"res-header-id\"><b>Generated Narrative: Encounter EncounterExample</b></p><a name=\"EncounterExample\"> </a><a name=\"hcEncounterExample\"> </a><a name=\"EncounterExample-en-US\"> </a><div style=\"display: inline-block; background-color: #d9e0e7; padding: 6px; margin: 4px; border: 1px solid #8da1b4; border-radius: 5px; line-height: 60%\"><p style=\"margin-bottom: 0px\">Last updated: 2024-02-23 00:00:00+0000</p><p style=\"margin-bottom: 0px\">Profiles: <a href=\"StructureDefinition-shinny-encounter.html\">SHINNY Encounter Profile</a>, <code>http://shinny.org/StructureDefinition/shin-ny-encounter</code></p></div><p><b>status</b>: Finished</p><p><b>class</b>: <a href=\"http://terminology.hl7.org/6.0.0/CodeSystem-v3-ActCode.html#v3-ActCode-FLD\">ActCode</a> FLD: field</p><p><b>type</b>: <span title=\"Codes:{http://snomed.info/sct 405672008}\">Direct questioning (procedure)</span></p><p><b>subject</b>: <a href=\"Patient-PatientExample.html\">Jon Doe  Male, DoB: 1981-07-16 ( Medical record number)</a></p></div>"
      },
      "status" : "finished",
      "class" : {
        "system" : "http://terminology.hl7.org/CodeSystem/v3-ActCode",
        "code" : "FLD"
      },
      "type" : [{
        "coding" : [{
          "system" : "http://snomed.info/sct",
          "code" : "405672008",
          "display" : "Direct questioning (procedure)"
        }],
        "text" : "Direct questioning (procedure)"
      }],
      "subject" : {
        "reference" : "Patient/PatientExample"
      }
    }
  },
  {
    "resource" : {
      "resourceType" : "Observation",
      "id" : "ObservationResponseHousingInstability71802-3",
      "meta" : {
        "lastUpdated" : "2024-02-23T00:00:00Z",
        "profile" : ["http://shinny.org/StructureDefinition/shin-ny-observation-screening-response",
        "http://hl7.org/fhir/us/sdoh-clinicalcare/StructureDefinition/SDOHCC-ObservationScreeningResponse"]
      },
      "text" : {
        "status" : "generated",
        "div" : "<div xmlns=\"http://www.w3.org/1999/xhtml\"><a name=\"Observation_ObservationResponseHousingInstability71802-3\"> </a><p class=\"res-header-id\"><b>Generated Narrative: Observation ObservationResponseHousingInstability71802-3</b></p><a name=\"ObservationResponseHousingInstability71802-3\"> </a><a name=\"hcObservationResponseHousingInstability71802-3\"> </a><a name=\"ObservationResponseHousingInstability71802-3-en-US\"> </a><div style=\"display: inline-block; background-color: #d9e0e7; padding: 6px; margin: 4px; border: 1px solid #8da1b4; border-radius: 5px; line-height: 60%\"><p style=\"margin-bottom: 0px\">Last updated: 2024-02-23 00:00:00+0000</p><p style=\"margin-bottom: 0px\">Profiles: <a href=\"StructureDefinition-shin-ny-observation-screening-response.html\">SHINNY Observation Screening Response Profile</a>, <a href=\"http://hl7.org/fhir/us/sdoh-clinicalcare/STU2.1/StructureDefinition-SDOHCC-ObservationScreeningResponse.html\">SDOHCC Observation Screening Response</a></p></div><p><b>status</b>: Final</p><p><b>category</b>: <span title=\"Codes:{http://terminology.hl7.org/CodeSystem/observation-category social-history}\">Social History</span>, <span title=\"Codes:{http://terminology.hl7.org/CodeSystem/observation-category survey}\">Survey</span>, <span title=\"Codes:{http://hl7.org/fhir/us/sdoh-clinicalcare/CodeSystem/SDOHCC-CodeSystemTemporaryCodes housing-instability}, {http://hl7.org/fhir/us/sdoh-clinicalcare/CodeSystem/SDOHCC-CodeSystemTemporaryCodes homelessness}\">Housing Instability</span>, <span title=\"Codes:{http://terminology.hl7.org/CodeSystem/observation-category social-history}\">Social History</span>, <span title=\"Codes:{http://terminology.hl7.org/CodeSystem/observation-category survey}\">Survey</span></p><p><b>code</b>: <span title=\"Codes:{http://loinc.org 71802-3}\">What is your living situation today?</span></p><p><b>subject</b>: <a href=\"Patient-PatientExample.html\">Jon Doe  Male, DoB: 1981-07-16 ( Medical record number)</a></p><p><b>effective</b>: 2023-07-12 16:08:00+0000</p><p><b>issued</b>: 2023-07-12 16:08:00+0000</p><p><b>value</b>: <span title=\"Codes:{http://loinc.org LA31993-1}\">I have a steady place to live</span></p></div>"
      },
      "status" : "final",
      "category" : [{
        "coding" : [{
          "system" : "http://terminology.hl7.org/CodeSystem/observation-category",
          "code" : "social-history",
          "display" : "Social History"
        }]
      },
      {
        "coding" : [{
          "system" : "http://terminology.hl7.org/CodeSystem/observation-category",
          "code" : "survey",
          "display" : "Survey"
        }]
      },
      {
        "coding" : [{
          "system" : "http://hl7.org/fhir/us/sdoh-clinicalcare/CodeSystem/SDOHCC-CodeSystemTemporaryCodes",
          "code" : "housing-instability",
          "display" : "Housing Instability"
        },
        {
          "system" : "http://hl7.org/fhir/us/sdoh-clinicalcare/CodeSystem/SDOHCC-CodeSystemTemporaryCodes",
          "code" : "homelessness",
          "display" : "Homelessness"
        }]
      },
      {
        "coding" : [{
          "system" : "http://terminology.hl7.org/CodeSystem/observation-category",
          "code" : "social-history"
        }]
      },
      {
        "coding" : [{
          "system" : "http://terminology.hl7.org/CodeSystem/observation-category",
          "code" : "survey"
        }]
      }],
      "code" : {
        "coding" : [{
          "system" : "http://loinc.org",
          "code" : "71802-3",
          "display" : "Housing status"
        }],
        "text" : "What is your living situation today?"
      },
      "subject" : {
        "reference" : "Patient/PatientExample"
      },
      "effectiveDateTime" : "2023-07-12T16:08:00.000Z",
      "issued" : "2023-07-12T16:08:00.000Z",
      "valueCodeableConcept" : {
        "coding" : [{
          "system" : "http://loinc.org",
          "code" : "LA31993-1",
          "display" : "I have a steady place to live"
        }]
      }
    }
  },
  {
    "resource" : {
      "resourceType" : "Observation",
      "id" : "ObservationResponseInadequateHousing96778-6",
      "meta" : {
        "lastUpdated" : "2024-02-23T00:00:00Z",
        "profile" : ["http://shinny.org/StructureDefinition/shin-ny-observation-screening-response",
        "http://hl7.org/fhir/us/sdoh-clinicalcare/StructureDefinition/SDOHCC-ObservationScreeningResponse"]
      },
      "text" : {
        "status" : "generated",
        "div" : "<div xmlns=\"http://www.w3.org/1999/xhtml\"><a name=\"Observation_ObservationResponseInadequateHousing96778-6\"> </a><p class=\"res-header-id\"><b>Generated Narrative: Observation ObservationResponseInadequateHousing96778-6</b></p><a name=\"ObservationResponseInadequateHousing96778-6\"> </a><a name=\"hcObservationResponseInadequateHousing96778-6\"> </a><a name=\"ObservationResponseInadequateHousing96778-6-en-US\"> </a><div style=\"display: inline-block; background-color: #d9e0e7; padding: 6px; margin: 4px; border: 1px solid #8da1b4; border-radius: 5px; line-height: 60%\"><p style=\"margin-bottom: 0px\">Last updated: 2024-02-23 00:00:00+0000</p><p style=\"margin-bottom: 0px\">Profiles: <a href=\"StructureDefinition-shin-ny-observation-screening-response.html\">SHINNY Observation Screening Response Profile</a>, <a href=\"http://hl7.org/fhir/us/sdoh-clinicalcare/STU2.1/StructureDefinition-SDOHCC-ObservationScreeningResponse.html\">SDOHCC Observation Screening Response</a></p></div><p><b>status</b>: Final</p><p><b>category</b>: <span title=\"Codes:{http://terminology.hl7.org/CodeSystem/observation-category social-history}\">Social History</span>, <span title=\"Codes:{http://terminology.hl7.org/CodeSystem/observation-category survey}\">Survey</span>, <span title=\"Codes:{http://hl7.org/fhir/us/sdoh-clinicalcare/CodeSystem/SDOHCC-CodeSystemTemporaryCodes inadequate-housing}\">Inadequate Housing</span>, <span title=\"Codes:{http://terminology.hl7.org/CodeSystem/observation-category social-history}\">Social History</span>, <span title=\"Codes:{http://terminology.hl7.org/CodeSystem/observation-category survey}\">Survey</span></p><p><b>code</b>: <span title=\"Codes:{http://loinc.org 96778-6}\">Think about the place you live. Do you have problems with any of the following?</span></p><p><b>subject</b>: <a href=\"Patient-PatientExample.html\">Jon Doe  Male, DoB: 1981-07-16 ( Medical record number)</a></p><p><b>effective</b>: 2023-07-12 16:08:00+0000</p><p><b>issued</b>: 2023-07-12 16:08:00+0000</p><p><b>value</b>: <span title=\"Codes:{http://loinc.org LA28580-1}\">Mold</span></p><p><b>interpretation</b>: <span title=\"Codes:{http://terminology.hl7.org/CodeSystem/v3-ObservationInterpretation POS}\">Positive</span></p></div>"
      },
      "status" : "final",
      "category" : [{
        "coding" : [{
          "system" : "http://terminology.hl7.org/CodeSystem/observation-category",
          "code" : "social-history",
          "display" : "Social History"
        }]
      },
      {
        "coding" : [{
          "system" : "http://terminology.hl7.org/CodeSystem/observation-category",
          "code" : "survey",
          "display" : "Survey"
        }]
      },
      {
        "coding" : [{
          "system" : "http://hl7.org/fhir/us/sdoh-clinicalcare/CodeSystem/SDOHCC-CodeSystemTemporaryCodes",
          "code" : "inadequate-housing",
          "display" : "Inadequate Housing"
        }]
      },
      {
        "coding" : [{
          "system" : "http://terminology.hl7.org/CodeSystem/observation-category",
          "code" : "social-history"
        }]
      },
      {
        "coding" : [{
          "system" : "http://terminology.hl7.org/CodeSystem/observation-category",
          "code" : "survey"
        }]
      }],
      "code" : {
        "coding" : [{
          "system" : "http://loinc.org",
          "code" : "96778-6",
          "display" : "Problems with place where you live"
        }],
        "text" : "Think about the place you live. Do you have problems with any of the following?"
      },
      "subject" : {
        "reference" : "Patient/PatientExample"
      },
      "effectiveDateTime" : "2023-07-12T16:08:00.000Z",
      "issued" : "2023-07-12T16:08:00.000Z",
      "valueCodeableConcept" : {
        "coding" : [{
          "system" : "http://loinc.org",
          "code" : "LA28580-1",
          "display" : "Mold"
        }],
        "text" : "Mold"
      },
      "interpretation" : [{
        "coding" : [{
          "system" : "http://terminology.hl7.org/CodeSystem/v3-ObservationInterpretation",
          "code" : "POS",
          "display" : "Positive"
        }]
      }]
    }
  },
  {
    "resource" : {
      "resourceType" : "Observation",
      "id" : "ObservationResponseUtilityInsecurity96779-4",
      "meta" : {
        "lastUpdated" : "2024-02-23T00:00:00Z",
        "profile" : ["http://shinny.org/StructureDefinition/shin-ny-observation-screening-response",
        "http://hl7.org/fhir/us/sdoh-clinicalcare/StructureDefinition/SDOHCC-ObservationScreeningResponse"]
      },
      "text" : {
        "status" : "generated",
        "div" : "<div xmlns=\"http://www.w3.org/1999/xhtml\"><a name=\"Observation_ObservationResponseUtilityInsecurity96779-4\"> </a><p class=\"res-header-id\"><b>Generated Narrative: Observation ObservationResponseUtilityInsecurity96779-4</b></p><a name=\"ObservationResponseUtilityInsecurity96779-4\"> </a><a name=\"hcObservationResponseUtilityInsecurity96779-4\"> </a><a name=\"ObservationResponseUtilityInsecurity96779-4-en-US\"> </a><div style=\"display: inline-block; background-color: #d9e0e7; padding: 6px; margin: 4px; border: 1px solid #8da1b4; border-radius: 5px; line-height: 60%\"><p style=\"margin-bottom: 0px\">Last updated: 2024-02-23 00:00:00+0000</p><p style=\"margin-bottom: 0px\">Profiles: <a href=\"StructureDefinition-shin-ny-observation-screening-response.html\">SHINNY Observation Screening Response Profile</a>, <a href=\"http://hl7.org/fhir/us/sdoh-clinicalcare/STU2.1/StructureDefinition-SDOHCC-ObservationScreeningResponse.html\">SDOHCC Observation Screening Response</a></p></div><p><b>status</b>: Final</p><p><b>category</b>: <span title=\"Codes:{http://terminology.hl7.org/CodeSystem/observation-category social-history}\">Social History</span>, <span title=\"Codes:{http://terminology.hl7.org/CodeSystem/observation-category survey}\">Survey</span>, <span title=\"Codes:{http://hl7.org/fhir/us/sdoh-clinicalcare/CodeSystem/SDOHCC-CodeSystemTemporaryCodes sdoh-category-unspecified}\">Utility Insecurity</span>, <span title=\"Codes:{http://terminology.hl7.org/CodeSystem/observation-category social-history}\">Social History</span>, <span title=\"Codes:{http://terminology.hl7.org/CodeSystem/observation-category survey}\">Survey</span></p><p><b>code</b>: <span title=\"Codes:{http://loinc.org 96779-4}\">In the past 12 months has the electric, gas, oil, or water company threatened to shut off services in your home?</span></p><p><b>subject</b>: <a href=\"Patient-PatientExample.html\">Jon Doe  Male, DoB: 1981-07-16 ( Medical record number)</a></p><p><b>effective</b>: 2023-07-12 16:08:00+0000</p><p><b>issued</b>: 2023-07-12 16:08:00+0000</p><p><b>value</b>: <span title=\"Codes:{http://loinc.org LA32-8}\">No</span></p></div>"
      },
      "status" : "final",
      "category" : [{
        "coding" : [{
          "system" : "http://terminology.hl7.org/CodeSystem/observation-category",
          "code" : "social-history",
          "display" : "Social History"
        }]
      },
      {
        "coding" : [{
          "system" : "http://terminology.hl7.org/CodeSystem/observation-category",
          "code" : "survey",
          "display" : "Survey"
        }]
      },
      {
        "coding" : [{
          "system" : "http://hl7.org/fhir/us/sdoh-clinicalcare/CodeSystem/SDOHCC-CodeSystemTemporaryCodes",
          "code" : "sdoh-category-unspecified",
          "display" : "SDOH Category Unspecified"
        }],
        "text" : "Utility Insecurity"
      },
      {
        "coding" : [{
          "system" : "http://terminology.hl7.org/CodeSystem/observation-category",
          "code" : "social-history"
        }]
      },
      {
        "coding" : [{
          "system" : "http://terminology.hl7.org/CodeSystem/observation-category",
          "code" : "survey"
        }]
      }],
      "code" : {
        "coding" : [{
          "system" : "http://loinc.org",
          "code" : "96779-4",
          "display" : "Has the electric, gas, oil, or water company threatened to shut off services in your home in past 12 months"
        }],
        "text" : "In the past 12 months has the electric, gas, oil, or water company threatened to shut off services in your home?"
      },
      "subject" : {
        "reference" : "Patient/PatientExample"
      },
      "effectiveDateTime" : "2023-07-12T16:08:00.000Z",
      "issued" : "2023-07-12T16:08:00.000Z",
      "valueCodeableConcept" : {
        "coding" : [{
          "system" : "http://loinc.org",
          "code" : "LA32-8",
          "display" : "No"
        }]
      }
    }
  },
  {
    "resource" : {
      "resourceType" : "Observation",
      "id" : "ObservationResponseFoodInsecurity88122-7",
      "meta" : {
        "lastUpdated" : "2024-02-23T00:00:00Z",
        "profile" : ["http://shinny.org/StructureDefinition/shin-ny-observation-screening-response",
        "http://hl7.org/fhir/us/sdoh-clinicalcare/StructureDefinition/SDOHCC-ObservationScreeningResponse"]
      },
      "text" : {
        "status" : "generated",
        "div" : "<div xmlns=\"http://www.w3.org/1999/xhtml\"><a name=\"Observation_ObservationResponseFoodInsecurity88122-7\"> </a><p class=\"res-header-id\"><b>Generated Narrative: Observation ObservationResponseFoodInsecurity88122-7</b></p><a name=\"ObservationResponseFoodInsecurity88122-7\"> </a><a name=\"hcObservationResponseFoodInsecurity88122-7\"> </a><a name=\"ObservationResponseFoodInsecurity88122-7-en-US\"> </a><div style=\"display: inline-block; background-color: #d9e0e7; padding: 6px; margin: 4px; border: 1px solid #8da1b4; border-radius: 5px; line-height: 60%\"><p style=\"margin-bottom: 0px\">Last updated: 2024-02-23 00:00:00+0000</p><p style=\"margin-bottom: 0px\">Profiles: <a href=\"StructureDefinition-shin-ny-observation-screening-response.html\">SHINNY Observation Screening Response Profile</a>, <a href=\"http://hl7.org/fhir/us/sdoh-clinicalcare/STU2.1/StructureDefinition-SDOHCC-ObservationScreeningResponse.html\">SDOHCC Observation Screening Response</a></p></div><p><b>status</b>: Final</p><p><b>category</b>: <span title=\"Codes:{http://terminology.hl7.org/CodeSystem/observation-category social-history}\">Social History</span>, <span title=\"Codes:{http://terminology.hl7.org/CodeSystem/observation-category survey}\">Survey</span>, <span title=\"Codes:{http://hl7.org/fhir/us/sdoh-clinicalcare/CodeSystem/SDOHCC-CodeSystemTemporaryCodes food-insecurity}\">Food Insecurity</span>, <span title=\"Codes:{http://terminology.hl7.org/CodeSystem/observation-category social-history}\">Social History</span>, <span title=\"Codes:{http://terminology.hl7.org/CodeSystem/observation-category survey}\">Survey</span></p><p><b>code</b>: <span title=\"Codes:{http://loinc.org 88122-7}\">Within the past 12 months, you worried that your food would run out before you got money to buy more.</span></p><p><b>subject</b>: <a href=\"Patient-PatientExample.html\">Jon Doe  Male, DoB: 1981-07-16 ( Medical record number)</a></p><p><b>effective</b>: 2023-07-12 16:08:00+0000</p><p><b>issued</b>: 2023-07-12 16:08:00+0000</p><p><b>value</b>: <span title=\"Codes:{http://loinc.org LA28397-0}\">Often true</span></p><p><b>interpretation</b>: <span title=\"Codes:{http://terminology.hl7.org/CodeSystem/v3-ObservationInterpretation POS}\">Positive</span></p></div>"
      },
      "status" : "final",
      "category" : [{
        "coding" : [{
          "system" : "http://terminology.hl7.org/CodeSystem/observation-category",
          "code" : "social-history",
          "display" : "Social History"
        }]
      },
      {
        "coding" : [{
          "system" : "http://terminology.hl7.org/CodeSystem/observation-category",
          "code" : "survey",
          "display" : "Survey"
        }]
      },
      {
        "coding" : [{
          "system" : "http://hl7.org/fhir/us/sdoh-clinicalcare/CodeSystem/SDOHCC-CodeSystemTemporaryCodes",
          "code" : "food-insecurity",
          "display" : "Food Insecurity"
        }]
      },
      {
        "coding" : [{
          "system" : "http://terminology.hl7.org/CodeSystem/observation-category",
          "code" : "social-history"
        }]
      },
      {
        "coding" : [{
          "system" : "http://terminology.hl7.org/CodeSystem/observation-category",
          "code" : "survey"
        }]
      }],
      "code" : {
        "coding" : [{
          "system" : "http://loinc.org",
          "code" : "88122-7",
          "display" : "Within the past 12 months we worried whether our food would run out before we got money to buy more [U.S. FSS]"
        }],
        "text" : "Within the past 12 months, you worried that your food would run out before you got money to buy more."
      },
      "subject" : {
        "reference" : "Patient/PatientExample"
      },
      "effectiveDateTime" : "2023-07-12T16:08:00.000Z",
      "issued" : "2023-07-12T16:08:00.000Z",
      "valueCodeableConcept" : {
        "coding" : [{
          "system" : "http://loinc.org",
          "code" : "LA28397-0",
          "display" : "Often true"
        }],
        "text" : "Often true"
      },
      "interpretation" : [{
        "coding" : [{
          "system" : "http://terminology.hl7.org/CodeSystem/v3-ObservationInterpretation",
          "code" : "POS",
          "display" : "Positive"
        }]
      }]
    }
  },
  {
    "resource" : {
      "resourceType" : "Observation",
      "id" : "ObservationResponseFoodInsecurity88123-5",
      "meta" : {
        "lastUpdated" : "2024-02-23T00:00:00Z",
        "profile" : ["http://shinny.org/StructureDefinition/shin-ny-observation-screening-response",
        "http://hl7.org/fhir/us/sdoh-clinicalcare/StructureDefinition/SDOHCC-ObservationScreeningResponse"]
      },
      "text" : {
        "status" : "generated",
        "div" : "<div xmlns=\"http://www.w3.org/1999/xhtml\"><a name=\"Observation_ObservationResponseFoodInsecurity88123-5\"> </a><p class=\"res-header-id\"><b>Generated Narrative: Observation ObservationResponseFoodInsecurity88123-5</b></p><a name=\"ObservationResponseFoodInsecurity88123-5\"> </a><a name=\"hcObservationResponseFoodInsecurity88123-5\"> </a><a name=\"ObservationResponseFoodInsecurity88123-5-en-US\"> </a><div style=\"display: inline-block; background-color: #d9e0e7; padding: 6px; margin: 4px; border: 1px solid #8da1b4; border-radius: 5px; line-height: 60%\"><p style=\"margin-bottom: 0px\">Last updated: 2024-02-23 00:00:00+0000</p><p style=\"margin-bottom: 0px\">Profiles: <a href=\"StructureDefinition-shin-ny-observation-screening-response.html\">SHINNY Observation Screening Response Profile</a>, <a href=\"http://hl7.org/fhir/us/sdoh-clinicalcare/STU2.1/StructureDefinition-SDOHCC-ObservationScreeningResponse.html\">SDOHCC Observation Screening Response</a></p></div><p><b>status</b>: Final</p><p><b>category</b>: <span title=\"Codes:{http://terminology.hl7.org/CodeSystem/observation-category social-history}\">Social History</span>, <span title=\"Codes:{http://terminology.hl7.org/CodeSystem/observation-category survey}\">Survey</span>, <span title=\"Codes:{http://hl7.org/fhir/us/sdoh-clinicalcare/CodeSystem/SDOHCC-CodeSystemTemporaryCodes food-insecurity}\">Food Insecurity</span>, <span title=\"Codes:{http://terminology.hl7.org/CodeSystem/observation-category social-history}\">Social History</span>, <span title=\"Codes:{http://terminology.hl7.org/CodeSystem/observation-category survey}\">Survey</span></p><p><b>code</b>: <span title=\"Codes:{http://loinc.org 88123-5}\">Within the past 12 months, the food you bought just didn't last and you didn't have money to get more.</span></p><p><b>subject</b>: <a href=\"Patient-PatientExample.html\">Jon Doe  Male, DoB: 1981-07-16 ( Medical record number)</a></p><p><b>effective</b>: 2023-07-12 16:08:00+0000</p><p><b>issued</b>: 2023-07-12 16:08:00+0000</p><p><b>value</b>: <span title=\"Codes:{http://loinc.org LA28397-0}\">Often true</span></p><p><b>interpretation</b>: <span title=\"Codes:{http://terminology.hl7.org/CodeSystem/v3-ObservationInterpretation POS}\">Positive</span></p></div>"
      },
      "status" : "final",
      "category" : [{
        "coding" : [{
          "system" : "http://terminology.hl7.org/CodeSystem/observation-category",
          "code" : "social-history",
          "display" : "Social History"
        }]
      },
      {
        "coding" : [{
          "system" : "http://terminology.hl7.org/CodeSystem/observation-category",
          "code" : "survey",
          "display" : "Survey"
        }]
      },
      {
        "coding" : [{
          "system" : "http://hl7.org/fhir/us/sdoh-clinicalcare/CodeSystem/SDOHCC-CodeSystemTemporaryCodes",
          "code" : "food-insecurity",
          "display" : "Food Insecurity"
        }]
      },
      {
        "coding" : [{
          "system" : "http://terminology.hl7.org/CodeSystem/observation-category",
          "code" : "social-history"
        }]
      },
      {
        "coding" : [{
          "system" : "http://terminology.hl7.org/CodeSystem/observation-category",
          "code" : "survey"
        }]
      }],
      "code" : {
        "coding" : [{
          "system" : "http://loinc.org",
          "code" : "88123-5",
          "display" : "Within the past 12 months the food we bought just didn't last and we didn't have money to get more [U.S. FSS]"
        }],
        "text" : "Within the past 12 months, the food you bought just didn't last and you didn't have money to get more."
      },
      "subject" : {
        "reference" : "Patient/PatientExample"
      },
      "effectiveDateTime" : "2023-07-12T16:08:00.000Z",
      "issued" : "2023-07-12T16:08:00.000Z",
      "valueCodeableConcept" : {
        "coding" : [{
          "system" : "http://loinc.org",
          "code" : "LA28397-0",
          "display" : "Often true"
        }]
      },
      "interpretation" : [{
        "coding" : [{
          "system" : "http://terminology.hl7.org/CodeSystem/v3-ObservationInterpretation",
          "code" : "POS",
          "display" : "Positive"
        }]
      }]
    }
  },
  {
    "resource" : {
      "resourceType" : "Observation",
      "id" : "ObservationResponseTransportationInsecurity93030-5",
      "meta" : {
        "lastUpdated" : "2024-02-23T00:00:00Z",
        "profile" : ["http://shinny.org/StructureDefinition/shin-ny-observation-screening-response",
        "http://hl7.org/fhir/us/sdoh-clinicalcare/StructureDefinition/SDOHCC-ObservationScreeningResponse"]
      },
      "text" : {
        "status" : "generated",
        "div" : "<div xmlns=\"http://www.w3.org/1999/xhtml\"><a name=\"Observation_ObservationResponseTransportationInsecurity93030-5\"> </a><p class=\"res-header-id\"><b>Generated Narrative: Observation ObservationResponseTransportationInsecurity93030-5</b></p><a name=\"ObservationResponseTransportationInsecurity93030-5\"> </a><a name=\"hcObservationResponseTransportationInsecurity93030-5\"> </a><a name=\"ObservationResponseTransportationInsecurity93030-5-en-US\"> </a><div style=\"display: inline-block; background-color: #d9e0e7; padding: 6px; margin: 4px; border: 1px solid #8da1b4; border-radius: 5px; line-height: 60%\"><p style=\"margin-bottom: 0px\">Last updated: 2024-02-23 00:00:00+0000</p><p style=\"margin-bottom: 0px\">Profiles: <a href=\"StructureDefinition-shin-ny-observation-screening-response.html\">SHINNY Observation Screening Response Profile</a>, <a href=\"http://hl7.org/fhir/us/sdoh-clinicalcare/STU2.1/StructureDefinition-SDOHCC-ObservationScreeningResponse.html\">SDOHCC Observation Screening Response</a></p></div><p><b>status</b>: Final</p><p><b>category</b>: <span title=\"Codes:{http://terminology.hl7.org/CodeSystem/observation-category social-history}\">Social History</span>, <span title=\"Codes:{http://terminology.hl7.org/CodeSystem/observation-category survey}\">Survey</span>, <span title=\"Codes:{http://hl7.org/fhir/us/sdoh-clinicalcare/CodeSystem/SDOHCC-CodeSystemTemporaryCodes transportation-insecurity}\">Transportation Insecurity</span>, <span title=\"Codes:{http://terminology.hl7.org/CodeSystem/observation-category social-history}\">Social History</span>, <span title=\"Codes:{http://terminology.hl7.org/CodeSystem/observation-category survey}\">Survey</span></p><p><b>code</b>: <span title=\"Codes:{http://loinc.org 93030-5}\">In the past 12 months, has lack of reliable transportation kept you from medical appointments, meetings, work or from getting things needed for daily living?</span></p><p><b>subject</b>: <a href=\"Patient-PatientExample.html\">Jon Doe  Male, DoB: 1981-07-16 ( Medical record number)</a></p><p><b>effective</b>: 2023-07-12 16:08:00+0000</p><p><b>issued</b>: 2023-07-12 16:08:00+0000</p><p><b>value</b>: <span title=\"Codes:{http://loinc.org LA32-8}\">No</span></p></div>"
      },
      "status" : "final",
      "category" : [{
        "coding" : [{
          "system" : "http://terminology.hl7.org/CodeSystem/observation-category",
          "code" : "social-history",
          "display" : "Social History"
        }]
      },
      {
        "coding" : [{
          "system" : "http://terminology.hl7.org/CodeSystem/observation-category",
          "code" : "survey",
          "display" : "Survey"
        }]
      },
      {
        "coding" : [{
          "system" : "http://hl7.org/fhir/us/sdoh-clinicalcare/CodeSystem/SDOHCC-CodeSystemTemporaryCodes",
          "code" : "transportation-insecurity",
          "display" : "Transportation Insecurity"
        }]
      },
      {
        "coding" : [{
          "system" : "http://terminology.hl7.org/CodeSystem/observation-category",
          "code" : "social-history"
        }]
      },
      {
        "coding" : [{
          "system" : "http://terminology.hl7.org/CodeSystem/observation-category",
          "code" : "survey"
        }]
      }],
      "code" : {
        "coding" : [{
          "system" : "http://loinc.org",
          "code" : "93030-5",
          "display" : "Has lack of transportation kept you from medical appointments, meetings, work, or from getting things needed for daily living"
        }],
        "text" : "In the past 12 months, has lack of reliable transportation kept you from medical appointments, meetings, work or from getting things needed for daily living?"
      },
      "subject" : {
        "reference" : "Patient/PatientExample"
      },
      "effectiveDateTime" : "2023-07-12T16:08:00.000Z",
      "issued" : "2023-07-12T16:08:00.000Z",
      "valueCodeableConcept" : {
        "coding" : [{
          "system" : "http://loinc.org",
          "code" : "LA32-8",
          "display" : "No"
        }]
      }
    }
  },
  {
    "resource" : {
      "resourceType" : "Observation",
      "id" : "ObservationResponseEmploymentStatus96780-2",
      "meta" : {
        "lastUpdated" : "2024-02-23T00:00:00Z",
        "profile" : ["http://shinny.org/StructureDefinition/shin-ny-observation-screening-response",
        "http://hl7.org/fhir/us/sdoh-clinicalcare/StructureDefinition/SDOHCC-ObservationScreeningResponse"]
      },
      "text" : {
        "status" : "generated",
        "div" : "<div xmlns=\"http://www.w3.org/1999/xhtml\"><a name=\"Observation_ObservationResponseEmploymentStatus96780-2\"> </a><p class=\"res-header-id\"><b>Generated Narrative: Observation ObservationResponseEmploymentStatus96780-2</b></p><a name=\"ObservationResponseEmploymentStatus96780-2\"> </a><a name=\"hcObservationResponseEmploymentStatus96780-2\"> </a><a name=\"ObservationResponseEmploymentStatus96780-2-en-US\"> </a><div style=\"display: inline-block; background-color: #d9e0e7; padding: 6px; margin: 4px; border: 1px solid #8da1b4; border-radius: 5px; line-height: 60%\"><p style=\"margin-bottom: 0px\">Last updated: 2024-02-23 00:00:00+0000</p><p style=\"margin-bottom: 0px\">Profiles: <a href=\"StructureDefinition-shin-ny-observation-screening-response.html\">SHINNY Observation Screening Response Profile</a>, <a href=\"http://hl7.org/fhir/us/sdoh-clinicalcare/STU2.1/StructureDefinition-SDOHCC-ObservationScreeningResponse.html\">SDOHCC Observation Screening Response</a></p></div><p><b>status</b>: Final</p><p><b>category</b>: <span title=\"Codes:{http://terminology.hl7.org/CodeSystem/observation-category social-history}\">Social History</span>, <span title=\"Codes:{http://terminology.hl7.org/CodeSystem/observation-category survey}\">Survey</span>, <span title=\"Codes:{http://hl7.org/fhir/us/sdoh-clinicalcare/CodeSystem/SDOHCC-CodeSystemTemporaryCodes employment-status}\">Employment Status</span>, <span title=\"Codes:{http://terminology.hl7.org/CodeSystem/observation-category social-history}\">Social History</span>, <span title=\"Codes:{http://terminology.hl7.org/CodeSystem/observation-category survey}\">Survey</span></p><p><b>code</b>: <span title=\"Codes:{http://loinc.org 96780-2}\">Do you want help finding or keeping work or a job?</span></p><p><b>subject</b>: <a href=\"Patient-PatientExample.html\">Jon Doe  Male, DoB: 1981-07-16 ( Medical record number)</a></p><p><b>effective</b>: 2023-07-12 16:08:00+0000</p><p><b>issued</b>: 2023-07-12 16:08:00+0000</p><p><b>value</b>: <span title=\"Codes:{http://loinc.org LA31981-6}\">Yes, help finding work</span></p><p><b>interpretation</b>: <span title=\"Codes:{http://terminology.hl7.org/CodeSystem/v3-ObservationInterpretation POS}\">Positive</span></p></div>"
      },
      "status" : "final",
      "category" : [{
        "coding" : [{
          "system" : "http://terminology.hl7.org/CodeSystem/observation-category",
          "code" : "social-history",
          "display" : "Social History"
        }]
      },
      {
        "coding" : [{
          "system" : "http://terminology.hl7.org/CodeSystem/observation-category",
          "code" : "survey",
          "display" : "Survey"
        }]
      },
      {
        "coding" : [{
          "system" : "http://hl7.org/fhir/us/sdoh-clinicalcare/CodeSystem/SDOHCC-CodeSystemTemporaryCodes",
          "code" : "employment-status",
          "display" : "Employment Status"
        }]
      },
      {
        "coding" : [{
          "system" : "http://terminology.hl7.org/CodeSystem/observation-category",
          "code" : "social-history"
        }]
      },
      {
        "coding" : [{
          "system" : "http://terminology.hl7.org/CodeSystem/observation-category",
          "code" : "survey"
        }]
      }],
      "code" : {
        "coding" : [{
          "system" : "http://loinc.org",
          "code" : "96780-2",
          "display" : "Wants help finding or keeping work or a job"
        }],
        "text" : "Do you want help finding or keeping work or a job?"
      },
      "subject" : {
        "reference" : "Patient/PatientExample"
      },
      "effectiveDateTime" : "2023-07-12T16:08:00.000Z",
      "issued" : "2023-07-12T16:08:00.000Z",
      "valueCodeableConcept" : {
        "coding" : [{
          "system" : "http://loinc.org",
          "code" : "LA31981-6",
          "display" : "Yes, help finding work"
        }]
      },
      "interpretation" : [{
        "coding" : [{
          "system" : "http://terminology.hl7.org/CodeSystem/v3-ObservationInterpretation",
          "code" : "POS",
          "display" : "Positive"
        }]
      }]
    }
  },
  {
    "resource" : {
      "resourceType" : "Observation",
      "id" : "ObservationResponseEducation96782-8",
      "meta" : {
        "lastUpdated" : "2024-02-23T00:00:00Z",
        "profile" : ["http://shinny.org/StructureDefinition/shin-ny-observation-screening-response",
        "http://hl7.org/fhir/us/sdoh-clinicalcare/StructureDefinition/SDOHCC-ObservationScreeningResponse"]
      },
      "text" : {
        "status" : "generated",
        "div" : "<div xmlns=\"http://www.w3.org/1999/xhtml\"><a name=\"Observation_ObservationResponseEducation96782-8\"> </a><p class=\"res-header-id\"><b>Generated Narrative: Observation ObservationResponseEducation96782-8</b></p><a name=\"ObservationResponseEducation96782-8\"> </a><a name=\"hcObservationResponseEducation96782-8\"> </a><a name=\"ObservationResponseEducation96782-8-en-US\"> </a><div style=\"display: inline-block; background-color: #d9e0e7; padding: 6px; margin: 4px; border: 1px solid #8da1b4; border-radius: 5px; line-height: 60%\"><p style=\"margin-bottom: 0px\">Last updated: 2024-02-23 00:00:00+0000</p><p style=\"margin-bottom: 0px\">Profiles: <a href=\"StructureDefinition-shin-ny-observation-screening-response.html\">SHINNY Observation Screening Response Profile</a>, <a href=\"http://hl7.org/fhir/us/sdoh-clinicalcare/STU2.1/StructureDefinition-SDOHCC-ObservationScreeningResponse.html\">SDOHCC Observation Screening Response</a></p></div><p><b>status</b>: Final</p><p><b>category</b>: <span title=\"Codes:{http://terminology.hl7.org/CodeSystem/observation-category social-history}\">Social History</span>, <span title=\"Codes:{http://terminology.hl7.org/CodeSystem/observation-category survey}\">Survey</span>, <span title=\"Codes:{http://snomed.info/sct 365458002}\">Education and/or schooling finding</span>, <span title=\"Codes:{http://terminology.hl7.org/CodeSystem/observation-category social-history}\">Social History</span>, <span title=\"Codes:{http://terminology.hl7.org/CodeSystem/observation-category survey}\">Survey</span></p><p><b>code</b>: <span title=\"Codes:{http://loinc.org 96782-8}\">Do you want help with school or training? For example, starting or completing job training or getting a high school diploma, GED or equivalent.</span></p><p><b>subject</b>: <a href=\"Patient-PatientExample.html\">Jon Doe  Male, DoB: 1981-07-16 ( Medical record number)</a></p><p><b>effective</b>: 2023-07-12 16:08:00+0000</p><p><b>issued</b>: 2023-07-12 16:08:00+0000</p><p><b>value</b>: <span title=\"Codes:{http://loinc.org LA33-6}\">Yes</span></p><p><b>interpretation</b>: <span title=\"Codes:{http://terminology.hl7.org/CodeSystem/v3-ObservationInterpretation POS}\">Positive</span></p></div>"
      },
      "status" : "final",
      "category" : [{
        "coding" : [{
          "system" : "http://terminology.hl7.org/CodeSystem/observation-category",
          "code" : "social-history",
          "display" : "Social History"
        }]
      },
      {
        "coding" : [{
          "system" : "http://terminology.hl7.org/CodeSystem/observation-category",
          "code" : "survey",
          "display" : "Survey"
        }]
      },
      {
        "coding" : [{
          "system" : "http://snomed.info/sct",
          "code" : "365458002",
          "display" : "Education and/or schooling finding"
        }]
      },
      {
        "coding" : [{
          "system" : "http://terminology.hl7.org/CodeSystem/observation-category",
          "code" : "social-history"
        }]
      },
      {
        "coding" : [{
          "system" : "http://terminology.hl7.org/CodeSystem/observation-category",
          "code" : "survey"
        }]
      }],
      "code" : {
        "coding" : [{
          "system" : "http://loinc.org",
          "code" : "96782-8",
          "display" : "Wants help with school or training"
        }],
        "text" : "Do you want help with school or training? For example, starting or completing job training or getting a high school diploma, GED or equivalent."
      },
      "subject" : {
        "reference" : "Patient/PatientExample"
      },
      "effectiveDateTime" : "2023-07-12T16:08:00.000Z",
      "issued" : "2023-07-12T16:08:00.000Z",
      "valueCodeableConcept" : {
        "coding" : [{
          "system" : "http://loinc.org",
          "code" : "LA33-6",
          "display" : "Yes"
        }]
      },
      "interpretation" : [{
        "coding" : [{
          "system" : "http://terminology.hl7.org/CodeSystem/v3-ObservationInterpretation",
          "code" : "POS",
          "display" : "Positive"
        }]
      }]
    }
  },
  {
    "resource" : {
      "resourceType" : "Observation",
      "id" : "ObservationResponseInterpersonalSafety95617-7",
      "meta" : {
        "lastUpdated" : "2024-02-23T00:00:00Z",
        "profile" : ["http://shinny.org/StructureDefinition/shin-ny-observation-screening-response",
        "http://hl7.org/fhir/us/sdoh-clinicalcare/StructureDefinition/SDOHCC-ObservationScreeningResponse"]
      },
      "text" : {
        "status" : "generated",
        "div" : "<div xmlns=\"http://www.w3.org/1999/xhtml\"><a name=\"Observation_ObservationResponseInterpersonalSafety95617-7\"> </a><p class=\"res-header-id\"><b>Generated Narrative: Observation ObservationResponseInterpersonalSafety95617-7</b></p><a name=\"ObservationResponseInterpersonalSafety95617-7\"> </a><a name=\"hcObservationResponseInterpersonalSafety95617-7\"> </a><a name=\"ObservationResponseInterpersonalSafety95617-7-en-US\"> </a><div style=\"display: inline-block; background-color: #d9e0e7; padding: 6px; margin: 4px; border: 1px solid #8da1b4; border-radius: 5px; line-height: 60%\"><p style=\"margin-bottom: 0px\">Last updated: 2024-02-23 00:00:00+0000</p><p style=\"margin-bottom: 0px\">Profiles: <a href=\"StructureDefinition-shin-ny-observation-screening-response.html\">SHINNY Observation Screening Response Profile</a>, <a href=\"http://hl7.org/fhir/us/sdoh-clinicalcare/STU2.1/StructureDefinition-SDOHCC-ObservationScreeningResponse.html\">SDOHCC Observation Screening Response</a></p></div><p><b>status</b>: Final</p><p><b>category</b>: <span title=\"Codes:{http://terminology.hl7.org/CodeSystem/observation-category social-history}\">Social History</span>, <span title=\"Codes:{http://terminology.hl7.org/CodeSystem/observation-category survey}\">Survey</span>, <span title=\"Codes:{http://hl7.org/fhir/us/sdoh-clinicalcare/CodeSystem/SDOHCC-CodeSystemTemporaryCodes sdoh-category-unspecified}\">Interpersonal Safety</span>, <span title=\"Codes:{http://terminology.hl7.org/CodeSystem/observation-category social-history}\">Social History</span>, <span title=\"Codes:{http://terminology.hl7.org/CodeSystem/observation-category survey}\">Survey</span></p><p><b>code</b>: <span title=\"Codes:{http://loinc.org 95617-7}\">How often does anyone, including family and friends, insult or talk down to you?</span></p><p><b>subject</b>: <a href=\"Patient-PatientExample.html\">Jon Doe  Male, DoB: 1981-07-16 ( Medical record number)</a></p><p><b>effective</b>: 2023-07-12 16:08:00+0000</p><p><b>issued</b>: 2023-07-12 16:08:00+0000</p><p><b>value</b>: <span title=\"Codes:{http://loinc.org LA6270-8}\">Never</span></p></div>"
      },
      "status" : "final",
      "category" : [{
        "coding" : [{
          "system" : "http://terminology.hl7.org/CodeSystem/observation-category",
          "code" : "social-history",
          "display" : "Social History"
        }]
      },
      {
        "coding" : [{
          "system" : "http://terminology.hl7.org/CodeSystem/observation-category",
          "code" : "survey",
          "display" : "Survey"
        }]
      },
      {
        "coding" : [{
          "system" : "http://hl7.org/fhir/us/sdoh-clinicalcare/CodeSystem/SDOHCC-CodeSystemTemporaryCodes",
          "code" : "sdoh-category-unspecified",
          "display" : "SDOH Category Unspecified"
        }],
        "text" : "Interpersonal Safety"
      },
      {
        "coding" : [{
          "system" : "http://terminology.hl7.org/CodeSystem/observation-category",
          "code" : "social-history"
        }]
      },
      {
        "coding" : [{
          "system" : "http://terminology.hl7.org/CodeSystem/observation-category",
          "code" : "survey"
        }]
      }],
      "code" : {
        "coding" : [{
          "system" : "http://loinc.org",
          "code" : "95617-7",
          "display" : "Insult you or talk down to you [HITS]"
        }],
        "text" : "How often does anyone, including family and friends, insult or talk down to you?"
      },
      "subject" : {
        "reference" : "Patient/PatientExample"
      },
      "effectiveDateTime" : "2023-07-12T16:08:00.000Z",
      "issued" : "2023-07-12T16:08:00.000Z",
      "valueCodeableConcept" : {
        "coding" : [{
          "system" : "http://loinc.org",
          "code" : "LA6270-8",
          "display" : "Never"
        }]
      }
    }
  },
  {
    "resource" : {
      "resourceType" : "Observation",
      "id" : "ObservationResponseInterpersonalSafety95616-9",
      "meta" : {
        "lastUpdated" : "2024-02-23T00:00:00Z",
        "profile" : ["http://shinny.org/StructureDefinition/shin-ny-observation-screening-response",
        "http://hl7.org/fhir/us/sdoh-clinicalcare/StructureDefinition/SDOHCC-ObservationScreeningResponse"]
      },
      "text" : {
        "status" : "generated",
        "div" : "<div xmlns=\"http://www.w3.org/1999/xhtml\"><a name=\"Observation_ObservationResponseInterpersonalSafety95616-9\"> </a><p class=\"res-header-id\"><b>Generated Narrative: Observation ObservationResponseInterpersonalSafety95616-9</b></p><a name=\"ObservationResponseInterpersonalSafety95616-9\"> </a><a name=\"hcObservationResponseInterpersonalSafety95616-9\"> </a><a name=\"ObservationResponseInterpersonalSafety95616-9-en-US\"> </a><div style=\"display: inline-block; background-color: #d9e0e7; padding: 6px; margin: 4px; border: 1px solid #8da1b4; border-radius: 5px; line-height: 60%\"><p style=\"margin-bottom: 0px\">Last updated: 2024-02-23 00:00:00+0000</p><p style=\"margin-bottom: 0px\">Profiles: <a href=\"StructureDefinition-shin-ny-observation-screening-response.html\">SHINNY Observation Screening Response Profile</a>, <a href=\"http://hl7.org/fhir/us/sdoh-clinicalcare/STU2.1/StructureDefinition-SDOHCC-ObservationScreeningResponse.html\">SDOHCC Observation Screening Response</a></p></div><p><b>status</b>: Final</p><p><b>category</b>: <span title=\"Codes:{http://terminology.hl7.org/CodeSystem/observation-category social-history}\">Social History</span>, <span title=\"Codes:{http://terminology.hl7.org/CodeSystem/observation-category survey}\">Survey</span>, <span title=\"Codes:{http://hl7.org/fhir/us/sdoh-clinicalcare/CodeSystem/SDOHCC-CodeSystemTemporaryCodes sdoh-category-unspecified}\">Interpersonal Safety</span>, <span title=\"Codes:{http://terminology.hl7.org/CodeSystem/observation-category social-history}\">Social History</span>, <span title=\"Codes:{http://terminology.hl7.org/CodeSystem/observation-category survey}\">Survey</span></p><p><b>code</b>: <span title=\"Codes:{http://loinc.org 95616-9}\">How often does anyone, including family and friends, threaten you with harm?</span></p><p><b>subject</b>: <a href=\"Patient-PatientExample.html\">Jon Doe  Male, DoB: 1981-07-16 ( Medical record number)</a></p><p><b>effective</b>: 2023-07-12 16:08:00+0000</p><p><b>issued</b>: 2023-07-12 16:08:00+0000</p><p><b>value</b>: <span title=\"Codes:{http://loinc.org LA6270-8}\">Never</span></p></div>"
      },
      "status" : "final",
      "category" : [{
        "coding" : [{
          "system" : "http://terminology.hl7.org/CodeSystem/observation-category",
          "code" : "social-history",
          "display" : "Social History"
        }]
      },
      {
        "coding" : [{
          "system" : "http://terminology.hl7.org/CodeSystem/observation-category",
          "code" : "survey",
          "display" : "Survey"
        }]
      },
      {
        "coding" : [{
          "system" : "http://hl7.org/fhir/us/sdoh-clinicalcare/CodeSystem/SDOHCC-CodeSystemTemporaryCodes",
          "code" : "sdoh-category-unspecified",
          "display" : "SDOH Category Unspecified"
        }],
        "text" : "Interpersonal Safety"
      },
      {
        "coding" : [{
          "system" : "http://terminology.hl7.org/CodeSystem/observation-category",
          "code" : "social-history"
        }]
      },
      {
        "coding" : [{
          "system" : "http://terminology.hl7.org/CodeSystem/observation-category",
          "code" : "survey"
        }]
      }],
      "code" : {
        "coding" : [{
          "system" : "http://loinc.org",
          "code" : "95616-9",
          "display" : "Threaten you with physical harm [HITS]"
        }],
        "text" : "How often does anyone, including family and friends, threaten you with harm?"
      },
      "subject" : {
        "reference" : "Patient/PatientExample"
      },
      "effectiveDateTime" : "2023-07-12T16:08:00.000Z",
      "issued" : "2023-07-12T16:08:00.000Z",
      "valueCodeableConcept" : {
        "coding" : [{
          "system" : "http://loinc.org",
          "code" : "LA6270-8",
          "display" : "Never"
        }]
      }
    }
  },
  {
    "resource" : {
      "resourceType" : "Observation",
      "id" : "ObservationResponseInterpersonalSafety95615-1",
      "meta" : {
        "lastUpdated" : "2024-02-23T00:00:00Z",
        "profile" : ["http://shinny.org/StructureDefinition/shin-ny-observation-screening-response",
        "http://hl7.org/fhir/us/sdoh-clinicalcare/StructureDefinition/SDOHCC-ObservationScreeningResponse"]
      },
      "text" : {
        "status" : "generated",
        "div" : "<div xmlns=\"http://www.w3.org/1999/xhtml\"><a name=\"Observation_ObservationResponseInterpersonalSafety95615-1\"> </a><p class=\"res-header-id\"><b>Generated Narrative: Observation ObservationResponseInterpersonalSafety95615-1</b></p><a name=\"ObservationResponseInterpersonalSafety95615-1\"> </a><a name=\"hcObservationResponseInterpersonalSafety95615-1\"> </a><a name=\"ObservationResponseInterpersonalSafety95615-1-en-US\"> </a><div style=\"display: inline-block; background-color: #d9e0e7; padding: 6px; margin: 4px; border: 1px solid #8da1b4; border-radius: 5px; line-height: 60%\"><p style=\"margin-bottom: 0px\">Last updated: 2024-02-23 00:00:00+0000</p><p style=\"margin-bottom: 0px\">Profiles: <a href=\"StructureDefinition-shin-ny-observation-screening-response.html\">SHINNY Observation Screening Response Profile</a>, <a href=\"http://hl7.org/fhir/us/sdoh-clinicalcare/STU2.1/StructureDefinition-SDOHCC-ObservationScreeningResponse.html\">SDOHCC Observation Screening Response</a></p></div><p><b>status</b>: Final</p><p><b>category</b>: <span title=\"Codes:{http://terminology.hl7.org/CodeSystem/observation-category social-history}\">Social History</span>, <span title=\"Codes:{http://terminology.hl7.org/CodeSystem/observation-category survey}\">Survey</span>, <span title=\"Codes:{http://hl7.org/fhir/us/sdoh-clinicalcare/CodeSystem/SDOHCC-CodeSystemTemporaryCodes sdoh-category-unspecified}\">Interpersonal Safety</span>, <span title=\"Codes:{http://terminology.hl7.org/CodeSystem/observation-category social-history}\">Social History</span>, <span title=\"Codes:{http://terminology.hl7.org/CodeSystem/observation-category survey}\">Survey</span></p><p><b>code</b>: <span title=\"Codes:{http://loinc.org 95615-1}\">How often does anyone, including family and friends, scream or curse at you?</span></p><p><b>subject</b>: <a href=\"Patient-PatientExample.html\">Jon Doe  Male, DoB: 1981-07-16 ( Medical record number)</a></p><p><b>effective</b>: 2023-07-12 16:08:00+0000</p><p><b>issued</b>: 2023-07-12 16:08:00+0000</p><p><b>value</b>: <span title=\"Codes:{http://loinc.org LA6270-8}\">Never</span></p></div>"
      },
      "status" : "final",
      "category" : [{
        "coding" : [{
          "system" : "http://terminology.hl7.org/CodeSystem/observation-category",
          "code" : "social-history",
          "display" : "Social History"
        }]
      },
      {
        "coding" : [{
          "system" : "http://terminology.hl7.org/CodeSystem/observation-category",
          "code" : "survey",
          "display" : "Survey"
        }]
      },
      {
        "coding" : [{
          "system" : "http://hl7.org/fhir/us/sdoh-clinicalcare/CodeSystem/SDOHCC-CodeSystemTemporaryCodes",
          "code" : "sdoh-category-unspecified",
          "display" : "SDOH Category Unspecified"
        }],
        "text" : "Interpersonal Safety"
      },
      {
        "coding" : [{
          "system" : "http://terminology.hl7.org/CodeSystem/observation-category",
          "code" : "social-history"
        }]
      },
      {
        "coding" : [{
          "system" : "http://terminology.hl7.org/CodeSystem/observation-category",
          "code" : "survey"
        }]
      }],
      "code" : {
        "coding" : [{
          "system" : "http://loinc.org",
          "code" : "95615-1",
          "display" : "Scream or curse at you [HITS]"
        }],
        "text" : "How often does anyone, including family and friends, scream or curse at you?"
      },
      "subject" : {
        "reference" : "Patient/PatientExample"
      },
      "effectiveDateTime" : "2023-07-12T16:08:00.000Z",
      "issued" : "2023-07-12T16:08:00.000Z",
      "valueCodeableConcept" : {
        "coding" : [{
          "system" : "http://loinc.org",
          "code" : "LA6270-8",
          "display" : "Never"
        }]
      }
    }
  },
  {
    "resource" : {
      "resourceType" : "Observation",
      "id" : "ObservationResponseInterpersonalSafety95614-4",
      "meta" : {
        "lastUpdated" : "2024-02-23T00:00:00Z",
        "profile" : ["http://shinny.org/StructureDefinition/shin-ny-observation-screening-response",
        "http://hl7.org/fhir/us/sdoh-clinicalcare/StructureDefinition/SDOHCC-ObservationScreeningResponse"]
      },
      "text" : {
        "status" : "generated",
        "div" : "<div xmlns=\"http://www.w3.org/1999/xhtml\"><a name=\"Observation_ObservationResponseInterpersonalSafety95614-4\"> </a><p class=\"res-header-id\"><b>Generated Narrative: Observation ObservationResponseInterpersonalSafety95614-4</b></p><a name=\"ObservationResponseInterpersonalSafety95614-4\"> </a><a name=\"hcObservationResponseInterpersonalSafety95614-4\"> </a><a name=\"ObservationResponseInterpersonalSafety95614-4-en-US\"> </a><div style=\"display: inline-block; background-color: #d9e0e7; padding: 6px; margin: 4px; border: 1px solid #8da1b4; border-radius: 5px; line-height: 60%\"><p style=\"margin-bottom: 0px\">Last updated: 2024-02-23 00:00:00+0000</p><p style=\"margin-bottom: 0px\">Profiles: <a href=\"StructureDefinition-shin-ny-observation-screening-response.html\">SHINNY Observation Screening Response Profile</a>, <a href=\"http://hl7.org/fhir/us/sdoh-clinicalcare/STU2.1/StructureDefinition-SDOHCC-ObservationScreeningResponse.html\">SDOHCC Observation Screening Response</a></p></div><p><b>status</b>: Final</p><p><b>category</b>: <span title=\"Codes:{http://terminology.hl7.org/CodeSystem/observation-category social-history}\">Social History</span>, <span title=\"Codes:{http://terminology.hl7.org/CodeSystem/observation-category survey}\">Survey</span>, <span title=\"Codes:{http://hl7.org/fhir/us/sdoh-clinicalcare/CodeSystem/SDOHCC-CodeSystemTemporaryCodes sdoh-category-unspecified}\">Interpersonal Safety</span>, <span title=\"Codes:{http://terminology.hl7.org/CodeSystem/observation-category social-history}\">Social History</span>, <span title=\"Codes:{http://terminology.hl7.org/CodeSystem/observation-category survey}\">Survey</span></p><p><b>code</b>: <span title=\"Codes:{http://loinc.org 95614-4}\">Safety total score</span></p><p><b>subject</b>: <a href=\"Patient-PatientExample.html\">Jon Doe  Male, DoB: 1981-07-16 ( Medical record number)</a></p><p><b>effective</b>: 2023-07-12 16:08:00+0000</p><p><b>issued</b>: 2023-07-12 16:08:00+0000</p><p><b>value</b>: <span title=\"Codes:\">4</span></p><p><b>derivedFrom</b>: </p><ul><li><a href=\"Observation-ObservationResponseInterpersonalSafety95618-5.html\">Observation Physically hurt you [HITS]</a></li><li><a href=\"Observation-ObservationResponseInterpersonalSafety95617-7.html\">Observation Insult you or talk down to you [HITS]</a></li><li><a href=\"Observation-ObservationResponseInterpersonalSafety95616-9.html\">Observation Threaten you with physical harm [HITS]</a></li><li><a href=\"Observation-ObservationResponseInterpersonalSafety95615-1.html\">Observation Scream or curse at you [HITS]</a></li></ul></div>"
      },
      "status" : "final",
      "category" : [{
        "coding" : [{
          "system" : "http://terminology.hl7.org/CodeSystem/observation-category",
          "code" : "social-history",
          "display" : "Social History"
        }]
      },
      {
        "coding" : [{
          "system" : "http://terminology.hl7.org/CodeSystem/observation-category",
          "code" : "survey",
          "display" : "Survey"
        }]
      },
      {
        "coding" : [{
          "system" : "http://hl7.org/fhir/us/sdoh-clinicalcare/CodeSystem/SDOHCC-CodeSystemTemporaryCodes",
          "code" : "sdoh-category-unspecified",
          "display" : "SDOH Category Unspecified"
        }],
        "text" : "Interpersonal Safety"
      },
      {
        "coding" : [{
          "system" : "http://terminology.hl7.org/CodeSystem/observation-category",
          "code" : "social-history"
        }]
      },
      {
        "coding" : [{
          "system" : "http://terminology.hl7.org/CodeSystem/observation-category",
          "code" : "survey"
        }]
      }],
      "code" : {
        "coding" : [{
          "system" : "http://loinc.org",
          "code" : "95614-4",
          "display" : "Total score [HITS]"
        }],
        "text" : "Safety total score"
      },
      "subject" : {
        "reference" : "Patient/PatientExample"
      },
      "effectiveDateTime" : "2023-07-12T16:08:00.000Z",
      "issued" : "2023-07-12T16:08:00.000Z",
      "valueCodeableConcept" : {
        "coding" : [{
          "system" : "http://unitsofmeasure.org",
          "display" : "{Number}"
        }],
        "text" : "4"
      },
      "derivedFrom" : [{
        "reference" : "Observation/ObservationResponseInterpersonalSafety95618-5"
      },
      {
        "reference" : "Observation/ObservationResponseInterpersonalSafety95617-7"
      },
      {
        "reference" : "Observation/ObservationResponseInterpersonalSafety95616-9"
      },
      {
        "reference" : "Observation/ObservationResponseInterpersonalSafety95615-1"
      }]
    }
  },
  {
    "resource" : {
      "resourceType" : "Observation",
      "id" : "ObservationResponseNYSAHCHRSNScreeningGroup",
      "meta" : {
        "lastUpdated" : "2024-02-23T00:00:00Z",
        "profile" : ["http://shinny.org/StructureDefinition/shin-ny-observation-screening-response",
        "http://hl7.org/fhir/us/sdoh-clinicalcare/StructureDefinition/SDOHCC-ObservationScreeningResponse"]
      },
      "text" : {
        "status" : "generated",
        "div" : "<div xmlns=\"http://www.w3.org/1999/xhtml\"><a name=\"Observation_ObservationResponseNYSAHCHRSNScreeningGroup\"> </a><p class=\"res-header-id\"><b>Generated Narrative: Observation ObservationResponseNYSAHCHRSNScreeningGroup</b></p><a name=\"ObservationResponseNYSAHCHRSNScreeningGroup\"> </a><a name=\"hcObservationResponseNYSAHCHRSNScreeningGroup\"> </a><a name=\"ObservationResponseNYSAHCHRSNScreeningGroup-en-US\"> </a><div style=\"display: inline-block; background-color: #d9e0e7; padding: 6px; margin: 4px; border: 1px solid #8da1b4; border-radius: 5px; line-height: 60%\"><p style=\"margin-bottom: 0px\">Last updated: 2024-02-23 00:00:00+0000</p><p style=\"margin-bottom: 0px\">Profiles: <a href=\"StructureDefinition-shin-ny-observation-screening-response.html\">SHINNY Observation Screening Response Profile</a>, <a href=\"http://hl7.org/fhir/us/sdoh-clinicalcare/STU2.1/StructureDefinition-SDOHCC-ObservationScreeningResponse.html\">SDOHCC Observation Screening Response</a></p></div><p><b>status</b>: Final</p><p><b>category</b>: <span title=\"Codes:{http://terminology.hl7.org/CodeSystem/observation-category social-history}\">Social History</span>, <span title=\"Codes:{http://terminology.hl7.org/CodeSystem/observation-category survey}\">Survey</span>, <span title=\"Codes:{http://hl7.org/fhir/us/sdoh-clinicalcare/CodeSystem/SDOHCC-CodeSystemTemporaryCodes housing-instability}, {http://hl7.org/fhir/us/sdoh-clinicalcare/CodeSystem/SDOHCC-CodeSystemTemporaryCodes inadequate-housing}, {http://hl7.org/fhir/us/sdoh-clinicalcare/CodeSystem/SDOHCC-CodeSystemTemporaryCodes sdoh-category-unspecified}, {http://hl7.org/fhir/us/sdoh-clinicalcare/CodeSystem/SDOHCC-CodeSystemTemporaryCodes food-insecurity}, {http://hl7.org/fhir/us/sdoh-clinicalcare/CodeSystem/SDOHCC-CodeSystemTemporaryCodes transportation-insecurity}, {http://hl7.org/fhir/us/sdoh-clinicalcare/CodeSystem/SDOHCC-CodeSystemTemporaryCodes employment-status}, {http://snomed.info/sct 365458002}\">Housing Instability</span>, <span title=\"Codes:{http://terminology.hl7.org/CodeSystem/observation-category social-history}\">Social History</span>, <span title=\"Codes:{http://terminology.hl7.org/CodeSystem/observation-category survey}\">Survey</span></p><p><b>code</b>: <span title=\"Codes:{http://hl7.org/fhir/us/sdoh-clinicalcare/StructureDefinition/SDOHCC-ObservationScreeningResponse NYSAHCHRSN}\">NYS Accountable Health Communities (AHC) Health-Related Social Needs Screening (HRSN) tool</span></p><p><b>subject</b>: <a href=\"Patient-PatientExample.html\">Jon Doe  Male, DoB: 1981-07-16 ( Medical record number)</a></p><p><b>encounter</b>: <a href=\"Encounter-EncounterExample.html\">Encounter: status = finished; class = field (ActCode#FLD); type = Direct questioning (procedure)</a></p><p><b>effective</b>: 2020-09-10 21:56:54+0000</p><p><b>issued</b>: 2020-09-10 21:56:54+0000</p><p><b>interpretation</b>: <span title=\"Codes:{http://terminology.hl7.org/CodeSystem/v3-ObservationInterpretation POS}\">Positive</span></p><p><b>hasMember</b>: </p><ul><li><a href=\"Observation-ObservationResponseHousingInstability71802-3.html\">Observation Housing status</a></li><li><a href=\"Observation-ObservationResponseInadequateHousing96778-6.html\">Observation Problems with place where you live</a></li><li><a href=\"Observation-ObservationResponseUtilityInsecurity96779-4.html\">Observation Has the electric, gas, oil, or water company threatened to shut off services in your home in past 12 months</a></li><li><a href=\"Observation-ObservationResponseFoodInsecurity88122-7.html\">Observation Within the past 12 months we worried whether our food would run out before we got money to buy more [U.S. FSS]</a></li><li><a href=\"Observation-ObservationResponseFoodInsecurity88123-5.html\">Observation Within the past 12 months the food we bought just didn't last and we didn't have money to get more [U.S. FSS]</a></li><li><a href=\"Observation-ObservationResponseTransportationInsecurity93030-5.html\">Observation Has lack of transportation kept you from medical appointments, meetings, work, or from getting things needed for daily living</a></li><li><a href=\"Observation-ObservationResponseEmploymentStatus96780-2.html\">Observation Wants help finding or keeping work or a job</a></li><li><a href=\"Observation-ObservationResponseEducation96782-8.html\">Observation Wants help with school or training</a></li><li><a href=\"Observation-ObservationResponseInterpersonalSafety95618-5.html\">Observation Physically hurt you [HITS]</a></li><li><a href=\"Observation-ObservationResponseInterpersonalSafety95617-7.html\">Observation Insult you or talk down to you [HITS]</a></li><li><a href=\"Observation-ObservationResponseInterpersonalSafety95616-9.html\">Observation Threaten you with physical harm [HITS]</a></li><li><a href=\"Observation-ObservationResponseInterpersonalSafety95615-1.html\">Observation Scream or curse at you [HITS]</a></li><li><a href=\"Observation-ObservationResponseInterpersonalSafety95614-4.html\">Observation Total score [HITS]</a></li></ul></div>"
      },
      "status" : "final",
      "category" : [{
        "coding" : [{
          "system" : "http://terminology.hl7.org/CodeSystem/observation-category",
          "code" : "social-history",
          "display" : "Social History"
        }]
      },
      {
        "coding" : [{
          "system" : "http://terminology.hl7.org/CodeSystem/observation-category",
          "code" : "survey",
          "display" : "Survey"
        }]
      },
      {
        "coding" : [{
          "system" : "http://hl7.org/fhir/us/sdoh-clinicalcare/CodeSystem/SDOHCC-CodeSystemTemporaryCodes",
          "code" : "housing-instability",
          "display" : "Housing Instability"
        },
        {
          "system" : "http://hl7.org/fhir/us/sdoh-clinicalcare/CodeSystem/SDOHCC-CodeSystemTemporaryCodes",
          "code" : "inadequate-housing",
          "display" : "Inadequate Housing"
        },
        {
          "system" : "http://hl7.org/fhir/us/sdoh-clinicalcare/CodeSystem/SDOHCC-CodeSystemTemporaryCodes",
          "code" : "sdoh-category-unspecified",
          "display" : "SDOH Category Unspecified"
        },
        {
          "system" : "http://hl7.org/fhir/us/sdoh-clinicalcare/CodeSystem/SDOHCC-CodeSystemTemporaryCodes",
          "code" : "food-insecurity",
          "display" : "Food Insecurity"
        },
        {
          "system" : "http://hl7.org/fhir/us/sdoh-clinicalcare/CodeSystem/SDOHCC-CodeSystemTemporaryCodes",
          "code" : "transportation-insecurity",
          "display" : "Transportation Insecurity"
        },
        {
          "system" : "http://hl7.org/fhir/us/sdoh-clinicalcare/CodeSystem/SDOHCC-CodeSystemTemporaryCodes",
          "code" : "employment-status",
          "display" : "Employment Status"
        },
        {
          "system" : "http://snomed.info/sct",
          "code" : "365458002",
          "display" : "Education and/or schooling finding"
        }]
      },
      {
        "coding" : [{
          "system" : "http://terminology.hl7.org/CodeSystem/observation-category",
          "code" : "social-history"
        }]
      },
      {
        "coding" : [{
          "system" : "http://terminology.hl7.org/CodeSystem/observation-category",
          "code" : "survey"
        }]
      }],
      "code" : {
        "coding" : [{
          "system" : "http://hl7.org/fhir/us/sdoh-clinicalcare/StructureDefinition/SDOHCC-ObservationScreeningResponse",
          "code" : "NYSAHCHRSN",
          "display" : "NYS Accountable Health Communities (AHC) Health-Related Social Needs Screening (HRSN) tool"
        }]
      },
      "subject" : {
        "reference" : "Patient/PatientExample"
      },
      "encounter" : {
        "reference" : "Encounter/EncounterExample"
      },
      "effectiveDateTime" : "2020-09-10T21:56:54.671Z",
      "issued" : "2020-09-10T21:56:54.671Z",
      "interpretation" : [{
        "coding" : [{
          "system" : "http://terminology.hl7.org/CodeSystem/v3-ObservationInterpretation",
          "code" : "POS",
          "display" : "Positive"
        }]
      }],
      "hasMember" : [{
        "reference" : "Observation/ObservationResponseHousingInstability71802-3"
      },
      {
        "reference" : "Observation/ObservationResponseInadequateHousing96778-6"
      },
      {
        "reference" : "Observation/ObservationResponseUtilityInsecurity96779-4"
      },
      {
        "reference" : "Observation/ObservationResponseFoodInsecurity88122-7"
      },
      {
        "reference" : "Observation/ObservationResponseFoodInsecurity88123-5"
      },
      {
        "reference" : "Observation/ObservationResponseTransportationInsecurity93030-5"
      },
      {
        "reference" : "Observation/ObservationResponseEmploymentStatus96780-2"
      },
      {
        "reference" : "Observation/ObservationResponseEducation96782-8"
      },
      {
        "reference" : "Observation/ObservationResponseInterpersonalSafety95618-5"
      },
      {
        "reference" : "Observation/ObservationResponseInterpersonalSafety95617-7"
      },
      {
        "reference" : "Observation/ObservationResponseInterpersonalSafety95616-9"
      },
      {
        "reference" : "Observation/ObservationResponseInterpersonalSafety95615-1"
      },
      {
        "reference" : "Observation/ObservationResponseInterpersonalSafety95614-4"
      }]
    }
  }]
}